Folder: NH3_Calorimetry/z_unorganized_archive/archive/0.25Kmin_wrong_wt%/data

Note: z_unorganized_archive/archive/0.25Kmin_wrong_wt%/data/1.76wt%_liquidus.txt
Index                      11723.000000
Time(s)                   135975.200000
Furnace Temperature(K)       283.696214
Sample Temperature(K)        271.758146
HeatFlow(mW)                -342.075550
Q_Corrected                 -342.771761
Fc                             0.003635

Note: z_unorganized_archive/archive/0.25Kmin_wrong_wt%/data/6wt%_peaks.txt
Index  Time(s)  Furnace Temperature(K)  Sample Temperature(K)  HeatFlow(mW)  Q_Corrected
  9410 109144.4              171.897994             158.416357     40.098226    42.796892
  9703 112543.2              186.067648             172.529494    -93.621894   -91.243620
  9732 112879.6              187.466032             173.937796     11.050082    13.411868
  9838 114109.2              192.594038             179.085150   -222.833584  -220.654691
 11682 135499.6              281.724068             269.503742   -352.768257  -353.459836

Note: z_unorganized_archive/archive/0.25Kmin_wrong_wt%/data/8wt%_peaks.txt
Index  Time(s)  Furnace Temperature(K)  Sample Temperature(K)  HeatFlow(mW)  Q_Corrected
  9410 109144.4              171.902525             158.473402     31.004440    33.703106
  9703 112543.2              186.066809             172.594977    -97.018761   -94.640487
  9741 112984.0              187.902838             174.440489     14.964622    17.326426
  9843 114167.2              192.833861             179.385352   -274.560452  -272.370957
 11484 133202.8              272.150364             260.090821   -216.648240  -216.976785
 11631 134908.0              279.254954             267.311282   -266.003523  -266.921954

Note: z_unorganized_archive/archive/0.25Kmin_wrong_wt%/data/10wt%_liquidus.txt
Index                      11464.000000
Time(s)                   132970.800000
Furnace Temperature(K)       271.185557
Sample Temperature(K)        259.067917
HeatFlow(mW)                -223.334606
Q_Corrected                 -223.464964
Fc                             0.002327

Note: z_unorganized_archive/README.md
# <u>Calorimetry Analysis</u>
*Repository for analysis code for the calorimetry data of NH3-H2O systems*

Folders:
archive_jack			contributions by Jack DIAB
i_data					.csv files of outputs from the calorimeter (Calisto Program). The first 8 rows are metadata.
i_data_processed		various files resulting from outputs of processing scripts, and data files from literature.
o_heatFlow				outputs and plots pertaining to heat flow
o_specificHeat			outputs and plots pertaining to specific heat
o_unclassifiedFigures	figures that are recently plotted and have no determined classification yet
z_meetings				files used in meetings. They serve as periodic summaries of work done
z_scripts				scripts used.

Note: this is still a work in progress. Scripts, files and folder organization are not final and may not be well documented and accessible. Do contact Bing Hong CHUA at bing.hong.chua@jpl.nasa.gov for assistance.

File: 3.52wt%_climb_proc.txt
 Index  Time(s)  Furnace Temperature(K)  Sample Temperature(K)  HeatFlow(mW)  Q_Corrected       Fc
  8501  98600.0              127.963             116.218    -20.6978   -18.2198      NaN
  8533  98971.2              129.509             117.59    -21.2948   -18.7512      NaN
  8565  99342.4              131.054             118.977    -21.9475   -19.3346      NaN
  8597  99713.6              132.604             120.381    -22.7774   -20.1045      NaN
  8629 100084.8              134.14             121.797    -23.8872   -21.1668      NaN
  8661 100456.0              135.692             123.223    -24.9859   -22.2364      NaN
  8693 100827.2              137.249             124.662    -25.2089   -22.4218      NaN
  8725 101198.4              138.787             126.111    -25.2817   -22.4703      NaN
  8757 101569.6              140.33             127.567    -25.5322   -22.6945      NaN
  8789 101940.8              141.887             129.031    -25.8469   -22.9972      NaN
  8821 102312.0              143.436             130.506    -26.1929   -23.3378      NaN
  8853 102683.2              144.972             131.985    -26.5171   -23.6452      NaN
  8885 103054.4              146.522             133.469    -26.8079   -23.9365      NaN
  8917 103425.6              148.074             134.96    -27.0947   -24.2143      NaN
  8949 103796.8              149.618             136.456    -27.3744   -24.4912      NaN
  8981 104168.0              151.17             137.958    -27.6432   -24.7636      NaN
  9013 104539.2              152.707             139.465    -27.9297   -25.0556      NaN
  9045 104910.4              154.255             140.974    -28.1944   -25.3298      NaN
  9077 105281.6              155.809             142.489    -28.4487   -25.5927      NaN
  9109 105652.8              157.353             144.007    -28.7082   -25.8552      NaN
  9141 106024.0              158.904             145.53    -28.9624   -26.1246      NaN
  9173 106395.2              160.442             147.054    -29.2013   -26.3656      NaN
  9205 106766.4              161.991             148.582    -29.3195   -26.5008      NaN
  9237 107137.6              163.542             150.112    -29.2155   -26.4165      NaN
  9269 107508.8              165.086             151.644    -28.5945   -25.7931      NaN
  9301 107880.0              166.631             153.179    -27.1527   -24.3908      NaN
  9333 108251.2              168.18             154.715    -24.4853   -21.7348      NaN
  9365 108622.4              169.724             156.253    -19.6406   -16.9186      NaN
  9397 108993.6              171.276             157.795    -11.2961    -8.602270      NaN
  9429 109364.8              172.828             159.339     -1.752338     0.911837      NaN
  9461 109736.0              174.37             160.885      0.015465     2.648654      NaN
  9493 110107.2              175.916             162.432     -7.185112    -4.568406      NaN
  9525 110478.4              177.467             163.98    -15.9544   -13.3885      NaN
  9557 110849.6              179.012             165.53    -22.5034   -19.9712      NaN
  9589 111220.8              180.552             167.081    -26.5682   -24.0723      NaN
  9621 111592.0              182.101             168.63    -28.9148   -26.4411      NaN
  9653 111963.2              183.648             170.18    -31.0379   -28.5804      NaN
  9685 112334.4              185.199             171.73    -57.5549   -55.1525      NaN
  9717 112705.6              186.744             173.279    -72.3725   -69.9888      NaN
  9749 113076.8              188.289             174.833     -1.500744     0.828461      NaN
  9781 113448.0              189.835             176.389    -14.3353   -12.0788 0.892257
  9813 113819.2              191.389             177.94   -102.975  -100.754 0.891344
  9845 114190.4              192.932             179.489    -89.3495   -87.1621 0.890415
  9877 114561.6              194.476             181.044    -47.3659   -45.2473 0.889467
  9909 114932.8              196.028             182.602    -38.319   -36.2519 0.888498
  9941 115304.0              197.574             184.159    -36.4046   -34.3817 0.887511
  9973 115675.2              199.114             185.719    -36.2699   -34.2875 0.886500
 10005 116046.4              200.662             187.279    -36.5306   -34.644 0.885467
 10037 116417.6              202.208             188.84    -36.8015   -34.821 0.884408
 10069 116788.8              203.762             190.402    -36.9829   -35.0593 0.883322
 10101 117160.0              205.301             191.967    -37.4638   -35.6588 0.882207
 10133 117531.2              206.851             193.532    -37.7581   -36.0076 0.881061
 10165 117902.4              208.395             195.098    -38.1474   -36.3479 0.879883
 10197 118273.6              209.944             196.666    -38.5187   -36.8744 0.878669
 10229 118644.8              211.487             198.235    -38.8958   -37.3319 0.877417
 10261 119016.0              213.036             199.803    -39.1285   -37.4412 0.876126
 10293 119387.2              214.592             201.373    -39.3659   -37.711 0.874792
 10325 119758.4              216.135             202.945    -39.9953   -38.3665 0.873410
 10357 120129.6              217.679             204.52    -40.4744   -38.9395 0.871976
 10389 120500.8              219.221             206.092    -40.8326   -39.6013 0.870492
 10421 120872.0              220.769             207.666    -41.2906   -39.8749 0.868949
 10453 121243.2              222.314             209.239    -41.7505   -40.2641 0.867345
 10485 121614.4              223.858             210.812    -42.2657   -40.7754 0.865674
 10517 121985.6              225.409             212.385    -42.6969   -41.3978 0.863931
 10549 122356.8              226.947             213.957    -43.1999   -41.6708 0.862111
 10581 122728.0              228.499             215.528    -43.7167   -42.5106 0.860207
 10613 123099.2              230.05             217.1    -44.1682   -42.9089 0.858208
 10645 123470.4              231.594             218.673    -44.8707   -43.6607 0.856107
 10677 123841.6              233.135             220.244    -45.4331   -44.3276 0.853896
 10709 124212.8              234.685             221.814    -46.0168   -45.0141 0.851565
 10741 124584.0              236.228             223.383    -46.6992   -45.8016 0.849101
 10773 124955.2              237.779             224.952    -47.4899   -46.5977 0.846489
 10805 125326.4              239.305             226.518    -48.3098   -47.3592 0.843716
 10837 125697.6              240.864             228.078    -48.9572   -48.1107 0.840772
 10869 126068.8              242.424             229.642    -49.8766   -48.8424 0.837619
 10901 126440.0              243.975             231.209    -50.9855   -50.1112 0.834229
 10933 126811.2              245.52             232.778    -52.0735   -51.1833 0.830577
 10965 127182.4              247.054             234.347    -53.4289   -52.6808 0.826631
 10997 127553.6              248.595             235.913    -54.7485   -54.0852 0.822364
 11029 127924.8              250.157             237.479    -56.1739   -55.2387 0.817719
 11061 128296.0              251.692             239.045    -57.8219   -57.0345 0.812639
 11093 128667.2              253.252             240.611    -59.59   -59.1239 0.807063
 11125 129038.4              254.801             242.179    -61.6258   -61.2293 0.800898
 11157 129409.6              256.35             243.75    -63.9651   -63.321 0.794044
 11189 129780.8              257.865             245.318    -66.5045   -66.3239 0.786415
 11221 130152.0              259.425             246.878    -69.5532   -69.237 0.777899
 11253 130523.2              260.985             248.442    -72.7858   -72.5485 0.768266
 11285 130894.4              262.534             250.009    -76.8796   -76.6922 0.757300
 11317 131265.6              264.05             251.572    -81.8612   -81.7196 0.744789
 11349 131636.8              265.616             253.13    -87.3616   -87.1831 0.730416
 11381 132008.0              267.155             254.691    -93.9396   -93.7837 0.713698
 11413 132379.2              268.703             256.246   -101.86  -101.955 0.694174
 11445 132750.4              270.265             257.805   -111.516  -111.794 0.670980
 11477 133121.6              271.782             259.36   -123.461  -123.821 0.643176
 11509 133492.8              273.35             260.912   -137.917  -138.596 0.609313
 11541 133864.0              274.892             262.467   -156.16  -157.028 0.566938
 11573 134235.2              276.453             264.02   -178.429  -179.452 0.512494
 11605 134606.4              278.018             265.58   -206.34  -207.166 0.439100
 11637 134977.6              279.561             267.147   -241.123  -241.953 0.333667
 11669 135348.8              281.103             268.716   -282.804  -283.363 0.166542
 11701 135720.0              282.643             270.282   -320.416  -320.992      NaN
 11733 136091.2              284.187             271.848   -339.526  -340.246      NaN
 11765 136462.4              285.734             273.415   -329.444  -330.37      NaN
 11797 136833.6              287.284             274.985   -346.931  -347.482      NaN
 11829 137204.8              288.833             276.553   -398.009  -399.005      NaN
 11861 137576.0              290.38             278.118   -513.073  -514.351      NaN
 11893 137947.2              291.903             279.685   -315.855  -316.863      NaN
 11925 138318.4              293.461             281.263   -159.171  -160.299      NaN
 11957 138689.6              294.996             282.841   -109.788  -111.228      NaN
 11989 139060.8              296.556             284.418    -94.1676   -95.5451      NaN
 12021 139432.0              298.087             285.993    -89.235   -90.6083      NaN
 12053 139803.2              299.291             287.556    -87.4327   -88.9393      NaN
 12085 140174.4              299.228             288.98    -84.6636   -85.9505      NaN
 12100 140348.4              299.191             289.576    -81.8338   -83.3958      NaN

File: 10wt%_climb_proc.txt
 Index  Time(s)  Furnace Temperature(K)  Sample Temperature(K)  HeatFlow(mW)  Q_Corrected       Fc
  8501  98600.0              127.955             117.74    -18.5179   -16.0399      NaN
  8533  98971.2              129.503             118.925    -20.0187   -17.475      NaN
  8565  99342.4              131.051             120.148    -21.9466   -19.3337      NaN
  8597  99713.6              132.597             121.406    -24.5844   -21.9115      NaN
  8629 100084.8              134.144             122.694    -27.611   -24.8906      NaN
  8661 100456.0              135.694             124.01    -28.3565   -25.607      NaN
  8693 100827.2              137.24             125.349    -27.1941   -24.407      NaN
  8725 101198.4              138.79             126.71    -27.0962   -24.2849      NaN
  8757 101569.6              140.337             128.092    -27.4713   -24.6335      NaN
  8789 101940.8              141.882             129.491    -27.9463   -25.0966      NaN
  8821 102312.0              143.431             130.905    -28.42   -25.5649      NaN
  8853 102683.2              144.978             132.334    -28.9002   -26.0283      NaN
  8885 103054.4              146.524             133.776    -29.3432   -26.4718      NaN
  8917 103425.6              148.071             135.227    -29.7388   -26.8584      NaN
  8949 103796.8              149.617             136.69    -30.1028   -27.2196      NaN
  8981 104168.0              151.165             138.16    -30.4573   -27.5777      NaN
  9013 104539.2              152.712             139.64    -30.7901   -27.916      NaN
  9045 104910.4              154.258             141.126    -31.1204   -28.2558      NaN
  9077 105281.6              155.809             142.62    -31.4183   -28.5624      NaN
  9109 105652.8              157.354             144.121    -31.707   -28.8539      NaN
  9141 106024.0              158.899             145.628    -31.9435   -29.1057      NaN
  9173 106395.2              160.448             147.138    -31.961   -29.1253      NaN
  9205 106766.4              161.995             148.654    -31.3356   -28.5168      NaN
  9237 107137.6              163.542             150.173    -28.8676   -26.0686      NaN
  9269 107508.8              165.089             151.698    -21.9395   -19.1381      NaN
  9301 107880.0              166.635             153.225     -4.270924    -1.509007      NaN
  9333 108251.2              168.182             154.758     36.8463    39.5968      NaN
  9365 108622.4              169.728             156.298     99.2292   101.951      NaN
  9397 108993.6              171.267             157.84     91.9856    94.6794      NaN
  9429 109364.8              172.808             159.376     22.7759    25.4401      NaN
  9461 109736.0              174.349             160.906    -13.3135   -10.6803      NaN
  9493 110107.2              175.875             162.429    -24.1651   -21.5484      NaN
  9525 110478.4              177.415             163.945    -26.9998   -24.434      NaN
  9557 110849.6              178.991             165.46    -27.8649   -25.3327      NaN
  9589 111220.8              180.562             166.983    -28.3869   -25.8909      NaN
  9621 111592.0              182.121             168.515    -29.1462   -26.6725      NaN
  9653 111963.2              183.668             170.057    -31.8343   -29.3768      NaN
  9685 112334.4              185.212             171.603    -47.1312   -44.7288      NaN
  9717 112705.6              186.755             173.156    -20.3163   -17.9326      NaN
  9749 113076.8              188.301             174.714    -27.8668   -25.5376      NaN
  9781 113448.0              189.846             176.274    -36.667   -34.4105 0.694104
  9813 113819.2              191.388             177.832   -171.138  -168.917 0.691499
  9845 114190.4              192.932             179.381   -302.769  -300.581 0.688866
  9877 114561.6              194.478             180.934   -152.583  -150.464 0.686179
  9909 114932.8              196.03             182.503    -68.044   -65.9769 0.683411
  9941 115304.0              197.577             184.077    -48.7074   -46.6845 0.680578
  9973 115675.2              199.123             185.652    -44.5309   -42.5484 0.677681
 10005 116046.4              200.668             187.229    -43.9259   -42.0393 0.674716
 10037 116417.6              202.21             188.805    -44.169   -42.1885 0.671682
 10069 116788.8              203.756             190.38    -44.583   -42.6595 0.668573
 10101 117160.0              205.306             191.957    -45.1348   -43.3299 0.665382
 10133 117531.2              206.846             193.532    -45.6832   -43.9326 0.662107
 10165 117902.4              208.39             195.107    -46.2438   -44.4444 0.658740
 10197 118273.6              209.943             196.682    -46.8284   -45.1841 0.655275
 10229 118644.8              211.493             198.258    -47.4924   -45.9285 0.651700
 10261 119016.0              213.034             199.834    -48.1662   -46.4788 0.648014
 10293 119387.2              214.585             201.41    -48.8503   -47.1955 0.644206
 10325 119758.4              216.136             202.986    -49.5862   -47.9574 0.640264
 10357 120129.6              217.678             204.563    -50.357   -48.8221 0.636181
 10389 120500.8              219.225             206.141    -51.24   -50.0088 0.631946
 10421 120872.0              220.768             207.718    -52.0962   -50.6805 0.627548
 10453 121243.2              222.318             209.294    -53.0166   -51.5302 0.622974
 10485 121614.4              223.861             210.872    -54.0354   -52.545 0.618208
 10517 121985.6              225.409             212.448    -55.0276   -53.7285 0.613238
 10549 122356.8              226.959             214.024    -56.1285   -54.5994 0.608043
 10581 122728.0              228.502             215.601    -57.2982   -56.092 0.602603
 10613 123099.2              230.049             217.177    -58.4859   -57.2266 0.596896
 10645 123470.4              231.597             218.752    -59.8397   -58.6298 0.590902
 10677 123841.6              233.142             220.329    -61.3404   -60.235 0.584584
 10709 124212.8              234.691             221.905    -62.9383   -61.9356 0.577915
 10741 124584.0              236.241             223.482    -64.5593   -63.6617 0.570855
 10773 124955.2              237.787             225.058    -66.404   -65.5118 0.563367
 10805 125326.4              239.33             226.635    -68.4695   -67.5189 0.555402
 10837 125697.6              240.875             228.211    -70.5657   -69.7191 0.546912
 10869 126068.8              242.422             229.787    -72.9256   -71.8915 0.537827
 10901 126440.0              243.97             231.362    -75.367   -74.4927 0.528082
 10933 126811.2              245.518             232.937    -78.2763   -77.3861 0.517587
 10965 127182.4              247.062             234.512    -81.5014   -80.7532 0.506249
 10997 127553.6              248.611             236.088    -84.8811   -84.2178 0.493931
 11029 127924.8              250.159             237.664    -88.8068   -87.8717 0.480512
 11061 128296.0              251.707             239.24    -93.1382   -92.3508 0.465830
 11093 128667.2              253.253             240.816    -97.9753   -97.5091 0.449684
 11125 129038.4              254.802             242.392   -103.415  -103.018 0.431844
 11157 129409.6              256.345             243.969   -109.691  -109.046 0.412018
 11189 129780.8              257.89             245.544   -116.692  -116.512 0.389891
 11221 130152.0              259.441             247.119   -124.59  -124.274 0.365031
 11253 130523.2              260.988             248.695   -133.644  -133.407 0.336906
 11285 130894.4              262.533             250.269   -144.086  -143.899 0.304918
 11317 131265.6              264.076             251.843   -155.942  -155.801 0.268284
 11349 131636.8              265.624             253.416   -169.273  -169.094 0.225988
 11381 132008.0              267.171             254.99   -183.676  -183.52 0.176666
 11413 132379.2              268.721             256.562   -198.841  -198.936 0.118755
 11445 132750.4              270.267             258.135   -214.751  -215.029 0.049745
 11477 133121.6              271.814             259.706   -225.398  -225.758      NaN
 11509 133492.8              273.359             261.28   -211.007  -211.686      NaN
 11541 133864.0              274.907             262.854   -181.107  -181.974      NaN
 11573 134235.2              276.452             264.431   -137.091  -138.114      NaN
 11605 134606.4              277.996             266.01    -96.455   -97.2804      NaN
 11637 134977.6              279.543             267.589    -84.1701   -85      NaN
 11669 135348.8              281.092             269.169    -80.564   -81.1228      NaN
 11701 135720.0              282.639             270.747    -79.5849   -80.1614      NaN
 11733 136091.2              284.187             272.325    -79.3378   -80.0578      NaN
 11765 136462.4              285.734             273.903    -79.3977   -80.323      NaN
 11797 136833.6              287.281             275.48    -79.483   -80.0342      NaN
 11829 137204.8              288.826             277.057    -79.5603   -80.5563      NaN
 11861 137576.0              290.373             278.633    -79.6039   -80.8819      NaN
 11893 137947.2              291.921             280.208    -79.547   -80.5547      NaN
 11925 138318.4              293.466             281.784    -79.5811   -80.7086      NaN
 11957 138689.6              295.008             283.358    -79.6668   -81.107      NaN
 11989 139060.8              296.557             284.931    -79.7354   -81.1129      NaN
 12021 139432.0              298.106             286.502    -79.8067   -81.1799      NaN
 12053 139803.2              299.324             288.07    -79.8891   -81.3957      NaN
 12085 140174.4              299.232             289.495    -78.166   -79.4529      NaN
 12100 140348.4              299.203             290.091    -75.729   -77.2909      NaN