Folder: NH3_Calorimetry/z_unorganized_archive/i_data_processed/0.25Kmin

Note: z_unorganized_archive/i_data_processed/0.25Kmin/0wt%_liquidus.txt
Index                       9756.000000
Time(s)                   113158.000000
Furnace Temperature(K)       188.627387
Sample Temperature(K)        175.140082
HeatFlow(mW)                 -31.175102
Q_Corrected                  -28.871801
Fc                             1.000000

Note: z_unorganized_archive/i_data_processed/0.25Kmin/1.6wt%_liquidus.txt
Index                      11726.000000
Time(s)                   136010.000000
Furnace Temperature(K)       283.842476
Sample Temperature(K)        271.903856
HeatFlow(mW)                -350.191821
Q_Corrected                 -350.900455
Fc                             0.012495

Note: z_unorganized_archive/README.md
# <u>Calorimetry Analysis</u>
*Repository for analysis code for the calorimetry data of NH3-H2O systems*

Folders:
archive_jack			contributions by Jack DIAB
i_data					.csv files of outputs from the calorimeter (Calisto Program). The first 8 rows are metadata.
i_data_processed		various files resulting from outputs of processing scripts, and data files from literature.
o_heatFlow				outputs and plots pertaining to heat flow
o_specificHeat			outputs and plots pertaining to specific heat
o_unclassifiedFigures	figures that are recently plotted and have no determined classification yet
z_meetings				files used in meetings. They serve as periodic summaries of work done
z_scripts				scripts used.

Note: this is still a work in progress. Scripts, files and folder organization are not final and may not be well documented and accessible. Do contact Bing Hong CHUA at bing.hong.chua@jpl.nasa.gov for assistance.

File: 1.6wt%_climb_proc.txt
 Index  Time(s)  Furnace Temperature(K)  Sample Temperature(K)  HeatFlow(mW)  Q_Corrected       Fc
  8501  98600.0              127.949             118.559    -16.3008   -13.8228      NaN
  8533  98971.2              129.498             119.651    -17.4694   -14.9257      NaN
  8565  99342.4              131.047             120.792    -18.6579   -16.045      NaN
  8597  99713.6              132.595             121.978    -19.8926   -17.2197      NaN
  8629 100084.8              134.146             123.202    -20.9348   -18.2144      NaN
  8661 100456.0              135.695             124.463    -21.386   -18.6365      NaN
  8693 100827.2              137.239             125.754    -21.831   -19.0439      NaN
  8725 101198.4              138.784             127.072    -22.3779   -19.5666      NaN
  8757 101569.6              140.334             128.414    -22.9094   -20.0716      NaN
  8789 101940.8              141.882             129.778    -23.4179   -20.5682      NaN
  8821 102312.0              143.429             131.163    -23.9176   -21.0625      NaN
  8853 102683.2              144.975             132.563    -24.3882   -21.5163      NaN
  8885 103054.4              146.523             133.98    -24.819   -21.9476      NaN
  8917 103425.6              148.071             135.411    -25.2436   -22.3633      NaN
  8949 103796.8              149.618             136.855    -25.6387   -22.7555      NaN
  8981 104168.0              151.165             138.309    -26.0136   -23.1341      NaN
  9013 104539.2              152.711             139.775    -26.381   -23.5068      NaN
  9045 104910.4              154.258             141.249    -26.7102   -23.8456      NaN
  9077 105281.6              155.802             142.73    -27.0379   -24.182      NaN
  9109 105652.8              157.354             144.219    -27.3705   -24.5174      NaN
  9141 106024.0              158.903             145.715    -27.6759   -24.8381      NaN
  9173 106395.2              160.441             147.218    -27.9469   -25.1112      NaN
  9205 106766.4              161.986             148.724    -28.1287   -25.3099      NaN
  9237 107137.6              163.543             150.235    -28.1641   -25.3651      NaN
  9269 107508.8              165.094             151.752    -27.9443   -25.143      NaN
  9301 107880.0              166.629             153.273    -27.2511   -24.4892      NaN
  9333 108251.2              168.172             154.796    -25.686   -22.9354      NaN
  9365 108622.4              169.726             156.32    -22.9464   -20.2244      NaN
  9397 108993.6              171.278             157.849    -19.5127   -16.8189      NaN
  9429 109364.8              172.821             159.381    -16.3492   -13.685      NaN
  9461 109736.0              174.364             160.916    -13.904   -11.2708      NaN
  9493 110107.2              175.915             162.451    -15.7713   -13.1546      NaN
  9525 110478.4              177.466             163.989    -22.1954   -19.6295      NaN
  9557 110849.6              179.005             165.528    -27.0277   -24.4956      NaN
  9589 111220.8              180.553             167.068    -29.0753   -26.5794      NaN
  9621 111592.0              182.102             168.61    -29.9595   -27.4858      NaN
  9653 111963.2              183.649             170.154    -30.9168   -28.4593      NaN
  9685 112334.4              185.202             171.699    -48.7015   -46.2991      NaN
  9717 112705.6              186.741             173.246    -51.9128   -49.5291      NaN
  9749 113076.8              188.287             174.797    -20.4094   -18.0802      NaN
  9781 113448.0              189.836             176.351    -19.5996   -17.3431 0.951036
  9813 113819.2              191.385             177.905    -84.5138   -82.2929 0.950620
  9845 114190.4              192.931             179.46    -51.908   -49.7205 0.950197
  9877 114561.6              194.473             181.02    -37.9457   -35.8271 0.949765
  9909 114932.8              196.022             182.581    -35.0839   -33.0168 0.949323
  9941 115304.0              197.57             184.143    -34.6463   -32.6235 0.948873
  9973 115675.2              199.12             185.708    -34.755   -32.7726 0.948412
 10005 116046.4              200.665             187.274    -35.0194   -33.1328 0.947941
 10037 116417.6              202.208             188.842    -35.2873   -33.3068 0.947457
 10069 116788.8              203.756             190.41    -35.541   -33.6174 0.946962
 10101 117160.0              205.301             191.979    -35.8194   -34.0144 0.946454
 10133 117531.2              206.85             193.548    -36.1042   -34.3536 0.945932
 10165 117902.4              208.4             195.119    -36.3894   -34.5899 0.945394
 10197 118273.6              209.943             196.69    -36.657   -35.0126 0.944841
 10229 118644.8              211.49             198.262    -37.0048   -35.4409 0.944270
 10261 119016.0              213.04             199.835    -37.2339   -35.5466 0.943682
 10293 119387.2              214.585             201.409    -37.5585   -35.9037 0.943073
 10325 119758.4              216.126             202.983    -37.8442   -36.2154 0.942444
 10357 120129.6              217.677             204.557    -38.2095   -36.6746 0.941792
 10389 120500.8              219.228             206.131    -38.5438   -37.3126 0.941115
 10421 120872.0              220.771             207.708    -38.8914   -37.4757 0.940412
 10453 121243.2              222.315             209.284    -39.2601   -37.7737 0.939681
 10485 121614.4              223.862             210.859    -39.4815   -37.9912 0.938919
 10517 121985.6              225.412             212.435    -39.828   -38.529 0.938125
 10549 122356.8              226.961             214.012    -40.2619   -38.7328 0.937293
 10581 122728.0              228.504             215.589    -40.6721   -39.466 0.936423
 10613 123099.2              230.048             217.166    -41.1184   -39.8591 0.935510
 10645 123470.4              231.6             218.743    -41.4581   -40.2481 0.934550
 10677 123841.6              233.145             220.321    -41.9424   -40.837 0.933539
 10709 124212.8              234.69             221.898    -42.3655   -41.3628 0.932472
 10741 124584.0              236.238             223.475    -42.839   -41.9413 0.931342
 10773 124955.2              237.782             225.051    -43.3676   -42.4754 0.930145
 10805 125326.4              239.331             226.627    -43.8548   -42.9042 0.928871
 10837 125697.6              240.882             228.204    -44.4459   -43.5993 0.927512
 10869 126068.8              242.425             229.781    -45.0739   -44.0397 0.926057
 10901 126440.0              243.972             231.358    -45.6409   -44.7666 0.924498
 10933 126811.2              245.519             232.935    -46.3492   -45.4591 0.922817
 10965 127182.4              247.066             234.51    -47.0951   -46.347 0.921002
 10997 127553.6              248.613             236.089    -47.8538   -47.1905 0.919028
 11029 127924.8              250.161             237.667    -48.8477   -47.9125 0.916878
 11061 128296.0              251.706             239.245    -49.8543   -49.0669 0.914525
 11093 128667.2              253.249             240.823    -50.856   -50.3898 0.911938
 11125 129038.4              254.795             242.4    -52.1243   -51.7278 0.909081
 11157 129409.6              256.342             243.977    -53.3871   -52.7429 0.905906
 11189 129780.8              257.891             245.553    -54.8883   -54.7077 0.902361
 11221 130152.0              259.442             247.129    -56.6452   -56.329 0.898378
 11253 130523.2              260.985             248.706    -58.6696   -58.4323 0.893872
 11285 130894.4              262.532             250.283    -61.0052   -60.8179 0.888740
 11317 131265.6              264.076             251.858    -63.7577   -63.6161 0.882864
 11349 131636.8              265.624             253.433    -67.0393   -66.8608 0.876078
 11381 132008.0              267.167             255.007    -70.9673   -70.8114 0.868176
 11413 132379.2              268.713             256.578    -75.835   -75.9302 0.858893
 11445 132750.4              270.263             258.151    -81.8575   -82.1349 0.847837
 11477 133121.6              271.807             259.722    -89.4755   -89.8354 0.834500
 11509 133492.8              273.352             261.292    -99.3457  -100.025 0.818105
 11541 133864.0              274.903             262.861   -112.203  -113.07 0.797486
 11573 134235.2              276.449             264.429   -129.475  -130.498 0.770641
 11605 134606.4              277.998             265.997   -152.742  -153.567 0.734056
 11637 134977.6              279.544             267.564   -184.37  -185.2 0.680551
 11669 135348.8              281.087             269.129   -227.362  -227.921 0.592771
 11701 135720.0              282.628             270.689   -288.054  -288.63 0.413539
 11733 136091.2              284.183             272.244   -370.209  -370.929      NaN
 11765 136462.4              285.724             273.796   -478.723  -479.649      NaN
 11797 136833.6              287.276             275.343   -581.66  -582.211      NaN
 11829 137204.8              288.826             276.888   -671.885  -672.881      NaN
 11861 137576.0              290.372             278.435   -700.896  -702.174      NaN
 11893 137947.2              291.906             279.99   -402.208  -403.216      NaN
 11925 138318.4              293.456             281.564   -188.035  -189.162      NaN
 11957 138689.6              295.006             283.143   -120.229  -121.669      NaN
 11989 139060.8              296.547             284.72    -99.2672  -100.645      NaN
 12021 139432.0              298.103             286.295    -92.2047   -93.578      NaN
 12053 139803.2              299.319             287.867    -89.7702   -91.2768      NaN
 12085 140174.4              299.216             289.294    -86.8477   -88.1346      NaN
 12100 140348.4              299.19             289.89    -83.8368   -85.3987      NaN

File: 3.2wt%_climb_proc.txt
 Index  Time(s)  Furnace Temperature(K)  Sample Temperature(K)  HeatFlow(mW)  Q_Corrected       Fc
  8501  98600.0              127.957             117.518    -18.1609   -15.6829      NaN
  8533  98971.2              129.505             118.728    -19.1953   -16.6516      NaN
  8565  99342.4              131.051             119.973    -20.2987   -17.6858      NaN
  8597  99713.6              132.6             121.251    -21.6388   -18.9659      NaN
  8629 100084.8              134.146             122.556    -23.1048   -20.3844      NaN
  8661 100456.0              135.695             123.888    -23.738   -20.9886      NaN
  8693 100827.2              137.242             125.241    -23.713   -20.926      NaN
  8725 101198.4              138.787             126.615    -23.9892   -21.1779      NaN
  8757 101569.6              140.336             128.006    -24.3858   -21.5481      NaN
  8789 101940.8              141.883             129.414    -24.7819   -21.9323      NaN
  8821 102312.0              143.43             130.836    -25.1749   -22.3198      NaN
  8853 102683.2              144.979             132.272    -25.5693   -22.6974      NaN
  8885 103054.4              146.524             133.72    -25.9203   -23.0489      NaN
  8917 103425.6              148.07             135.177    -26.2722   -23.3918      NaN
  8949 103796.8              149.618             136.645    -26.6309   -23.7477      NaN
  8981 104168.0              151.164             138.12    -26.9402   -24.0606      NaN
  9013 104539.2              152.711             139.603    -27.2625   -24.3884      NaN
  9045 104910.4              154.26             141.093    -27.5801   -24.7155      NaN
  9077 105281.6              155.805             142.591    -27.8655   -25.0096      NaN
  9109 105652.8              157.353             144.093    -28.1609   -25.3078      NaN
  9141 106024.0              158.901             145.601    -28.4431   -25.6052      NaN
  9173 106395.2              160.447             147.114    -28.6438   -25.8081      NaN
  9205 106766.4              161.994             148.631    -28.7107   -25.8919      NaN
  9237 107137.6              163.542             150.151    -28.4222   -25.6232      NaN
  9269 107508.8              165.089             151.675    -27.3375   -24.5362      NaN
  9301 107880.0              166.635             153.202    -24.7127   -21.9507      NaN
  9333 108251.2              168.182             154.732    -18.947   -16.1965      NaN
  9365 108622.4              169.729             156.265     -7.691625    -4.969582      NaN
  9397 108993.6              171.273             157.802      7.058360     9.752161      NaN
  9429 109364.8              172.823             159.339      9.407172    12.0713      NaN
  9461 109736.0              174.366             160.879     -9.548221    -6.915032      NaN
  9493 110107.2              175.915             162.417    -22.5164   -19.8997      NaN
  9525 110478.4              177.46             163.957    -26.34   -23.7741      NaN
  9557 110849.6              179.011             165.498    -27.9011   -25.369      NaN
  9589 111220.8              180.552             167.042    -28.8866   -26.3907      NaN
  9621 111592.0              182.098             168.585    -29.5732   -27.0995      NaN
  9653 111963.2              183.649             170.132    -30.8625   -28.4049      NaN
  9685 112334.4              185.193             171.679    -56.9583   -54.5559      NaN
  9717 112705.6              186.742             173.227    -72.8659   -70.4822      NaN
  9749 113076.8              188.293             174.783      8.776360    11.1056      NaN
  9781 113448.0              189.84             176.343    -12.6318   -10.3753 0.902076
  9813 113819.2              191.376             177.899    -98.5249   -96.3041 0.901244
  9845 114190.4              192.925             179.45    -96.236   -94.0486 0.900399
  9877 114561.6              194.476             181.009    -48.4251   -46.3066 0.899535
  9909 114932.8              196.022             182.573    -38.3683   -36.3013 0.898652
  9941 115304.0              197.574             184.138    -36.3397   -34.3168 0.897749
  9973 115675.2              199.115             185.705    -36.1312   -34.1487 0.896827
 10005 116046.4              200.66             187.271    -36.2837   -34.3971 0.895883
 10037 116417.6              202.209             188.839    -36.6052   -34.6247 0.894917
 10069 116788.8              203.757             190.408    -36.9582   -35.0347 0.893926
 10101 117160.0              205.299             191.978    -37.2353   -35.4304 0.892908
 10133 117531.2              206.849             193.547    -37.5053   -35.7547 0.891864
 10165 117902.4              208.401             195.118    -37.8393   -36.0398 0.890789
 10197 118273.6              209.946             196.691    -38.246   -36.6017 0.889681
 10229 118644.8              211.487             198.265    -38.6533   -37.0895 0.888539
 10261 119016.0              213.037             199.838    -39.0017   -37.3144 0.887361
 10293 119387.2              214.586             201.412    -39.412   -37.7572 0.886144
 10325 119758.4              216.131             202.988    -39.7866   -38.1578 0.884884
 10357 120129.6              217.676             204.562    -40.1378   -38.6029 0.883579
 10389 120500.8              219.224             206.136    -40.5796   -39.3483 0.882226
 10421 120872.0              220.769             207.712    -41.1181   -39.7024 0.880820
 10453 121243.2              222.317             209.288    -41.5428   -40.0564 0.879358
 10485 121614.4              223.869             210.865    -41.9823   -40.4919 0.877833
 10517 121985.6              225.41             212.441    -42.4693   -41.1702 0.876243
 10549 122356.8              226.958             214.018    -42.9754   -41.4463 0.874581
 10581 122728.0              228.505             215.594    -43.4994   -42.2933 0.872840
 10613 123099.2              230.054             217.171    -44.204   -42.9448 0.871013
 10645 123470.4              231.596             218.75    -44.8159   -43.606 0.869092
 10677 123841.6              233.143             220.328    -45.4799   -44.3745 0.867068
 10709 124212.8              234.692             221.905    -46.149   -45.1463 0.864933
 10741 124584.0              236.238             223.483    -46.8966   -45.999 0.862673
 10773 124955.2              237.784             225.059    -47.6044   -46.7122 0.860276
 10805 125326.4              239.331             226.636    -48.4472   -47.4966 0.857728
 10837 125697.6              240.876             228.213    -49.2609   -48.4143 0.855009
 10869 126068.8              242.426             229.789    -50.2011   -49.1669 0.852100
 10901 126440.0              243.976             231.367    -51.1898   -50.3155 0.848977
 10933 126811.2              245.52             232.945    -52.3882   -51.4981 0.845610
 10965 127182.4              247.064             234.521    -53.6589   -52.9108 0.841976
 10997 127553.6              248.611             236.1    -55.0203   -54.357 0.838027
 11029 127924.8              250.159             237.677    -56.4439   -55.5088 0.833728
 11061 128296.0              251.702             239.254    -58.2346   -57.4471 0.829022
 11093 128667.2              253.251             240.83    -60.0875   -59.6213 0.823852
 11125 129038.4              254.798             242.407    -62.1461   -61.7496 0.818134
 11157 129409.6              256.345             243.983    -64.5411   -63.897 0.811786
 11189 129780.8              257.895             245.559    -67.1714   -66.9908 0.804692
 11221 130152.0              259.438             247.136    -70.4014   -70.0852 0.796721
 11253 130523.2              260.985             248.712    -74.0153   -73.7779 0.787704
 11285 130894.4              262.532             250.288    -78.3097   -78.1224 0.777444
 11317 131265.6              264.077             251.863    -83.3354   -83.1938 0.765689
 11349 131636.8              265.626             253.437    -89.3251   -89.1466 0.752116
 11381 132008.0              267.171             255.013    -96.5665   -96.4106 0.736287
 11413 132379.2              268.72             256.587   -105.379  -105.474 0.717673
 11445 132750.4              270.268             258.162   -116.303  -116.581 0.695508
 11477 133121.6              271.812             259.735   -129.844  -130.204 0.668757
 11509 133492.8              273.36             261.307   -146.854  -147.533 0.635861
 11541 133864.0              274.904             262.88   -168.494  -169.362 0.594409
 11573 134235.2              276.452             264.449   -196.388  -197.411 0.540509
 11605 134606.4              277.999             266.019   -232.338  -233.163 0.466909
 11637 134977.6              279.547             267.586   -278.255  -279.084 0.359179
 11669 135348.8              281.095             269.152   -335.926  -336.484 0.182088
 11701 135720.0              282.639             270.715   -402.898  -403.475      NaN
 11733 136091.2              284.184             272.275   -475.941  -476.661      NaN
 11765 136462.4              285.726             273.833   -529.962  -530.887      NaN
 11797 136833.6              287.277             275.39   -517.521  -518.072      NaN
 11829 137204.8              288.828             276.956   -298.347  -299.343      NaN
 11861 137576.0              290.374             278.539   -153.341  -154.619      NaN
 11893 137947.2              291.918             280.122   -107.917  -108.925      NaN
 11925 138318.4              293.467             281.707    -93.7822   -94.9098      NaN
 11957 138689.6              295.016             283.29    -89.3513   -90.7915      NaN
 11989 139060.8              296.562             284.872    -87.9321   -89.3096      NaN
 12021 139432.0              298.107             286.453    -87.3897   -88.7629      NaN
 12053 139803.2              299.328             288.028    -87.0791   -88.5857      NaN
 12085 140174.4              299.24             289.462    -84.862   -86.1489      NaN
 12100 140348.4              299.214             290.062    -82.1124   -83.6743      NaN