Folder: NH3_Calorimetry/z_unorganized_archive/i_data_processed/27Sep

Note: z_unorganized_archive/i_data_processed/27Sep/2.842wt%_peaks.txt
Index  Time(s)  Furnace Temperature(K)  Sample Temperature(K)  HeatFlow(mW)  Q_Corrected
  6286 111244.5              118.544424             113.666022     -2.303029    -1.819249
  6286 111244.5              118.544424             113.666022     -2.303029    -1.819249
  8462 149759.7              182.742659             177.109152    -23.524252   -22.639690
  8462 149759.7              182.742659             177.109152    -23.524252   -22.639690
 11627 205780.2              276.115100             270.987317    -61.922771   -62.446491
 11627 205780.2              276.115100             270.987317    -61.922771   -62.446491

Note: z_unorganized_archive/i_data_processed/27Sep/8.73wt%_liquidus.txt
Index                      11839.000000
Time(s)                   200062.200000
Furnace Temperature(K)       266.580624
Sample Temperature(K)        261.396976
HeatFlow(mW)                 -84.810126
Q_Corrected                  -85.334845
Fc                             0.000849

Note: z_unorganized_archive/i_data_processed/27Sep/8.73wt%_peaks.txt
Index  Time(s)  Furnace Temperature(K)  Sample Temperature(K)  HeatFlow(mW)  Q_Corrected
  8893 150274.8              183.599860             177.945830   -182.115650  -181.641620
  8893 150274.8              183.599860             177.945830   -182.115650  -181.641620
 11775 198980.6              264.778407             259.592063   -115.431682  -115.914996
 11775 198980.6              264.778407             259.592063   -115.431682  -115.914996

Note: z_unorganized_archive/i_data_processed/27Sep/26.96wt%_liquidus.txt
Index                       9924.000000
Time(s)                   167698.700000
Furnace Temperature(K)       212.638380
Sample Temperature(K)        207.151061
HeatFlow(mW)                 -28.526591
Q_Corrected                  -28.523581
Fc                             0.000182

Note: z_unorganized_archive/README.md
# <u>Calorimetry Analysis</u>
*Repository for analysis code for the calorimetry data of NH3-H2O systems*

Folders:
archive_jack			contributions by Jack DIAB
i_data					.csv files of outputs from the calorimeter (Calisto Program). The first 8 rows are metadata.
i_data_processed		various files resulting from outputs of processing scripts, and data files from literature.
o_heatFlow				outputs and plots pertaining to heat flow
o_specificHeat			outputs and plots pertaining to specific heat
o_unclassifiedFigures	figures that are recently plotted and have no determined classification yet
z_meetings				files used in meetings. They serve as periodic summaries of work done
z_scripts				scripts used.

Note: this is still a work in progress. Scripts, files and folder organization are not final and may not be well documented and accessible. Do contact Bing Hong CHUA at bing.hong.chua@jpl.nasa.gov for assistance.

File: 2.842wt%_climb_proc.txt
 Index  Time(s)  Furnace Temperature(K)  Sample Temperature(K)  HeatFlow(mW)  Q_Corrected       Fc
  6001 106200.0              110.124             107.18     -1.276255    -0.792266      NaN
  6065 107332.8              112.02             108.355     -1.648827    -1.155979      NaN
  6129 108465.6              113.912             109.74     -1.915141    -1.412182      NaN
  6193 109598.4              115.804             111.271     -2.106761    -1.621572      NaN
  6257 110731.2              117.692             112.902     -2.247093    -1.756105      NaN
  6321 111864.0              119.579             114.604     -2.357788    -1.632506      NaN
  6385 112996.8              121.472             116.352     -2.446141    -1.510162      NaN
  6449 114129.6              123.361             118.136     -2.541908    -1.462206      NaN
  6513 115262.4              125.233             119.941     -2.669335    -1.483502      NaN
  6577 116395.2              127.136             121.764     -2.759369    -1.506366      NaN
  6641 117528.0              129.023             123.598     -2.723389    -1.421108      NaN
  6705 118660.8              130.903             125.444     -2.729942    -1.402022      NaN
  6769 119793.6              132.801             127.293     -2.741717    -1.399409      NaN
  6833 120926.4              134.691             129.147     -2.759179    -1.410266      NaN
  6897 122059.2              136.573             131.015     -2.779548    -1.421811      NaN
  6961 123192.0              138.461             132.877     -2.777514    -1.426549      NaN
  7025 124324.8              140.354             134.748     -2.811540    -1.464112      NaN
  7089 125457.6              142.231             136.616     -2.811786    -1.486049      NaN
  7153 126590.4              144.124             138.484     -2.820598    -1.504795      NaN
  7217 127723.2              146.011             140.361     -2.836460    -1.534426      NaN
  7281 128856.0              147.907             142.236     -2.850675    -1.567419      NaN
  7345 129988.8              149.79             144.11     -2.845924    -1.581233      NaN
  7409 131121.6              151.678             145.99     -2.796197    -1.539307      NaN
  7473 132254.4              153.564             147.869     -2.554263    -1.309375      NaN
  7537 133387.2              155.453             149.754     -1.841447    -0.614673      NaN
  7601 134520.0              157.343             151.643     -0.389678     0.835324      NaN
  7665 135652.8              159.228             153.533      0.702163     1.911799      NaN
  7729 136785.6              161.115             155.422     -1.324081    -0.127961      NaN
  7793 137918.4              163.01             157.309     -2.725888    -1.553651      NaN
  7857 139051.2              164.897             159.199     -2.814112    -1.662290      NaN
  7921 140184.0              166.787             161.095     -2.829571    -1.704619      NaN
  7985 141316.8              168.674             162.992     -2.762300    -1.645169      NaN
  8049 142449.6              170.556             164.885     -2.820747    -1.727377      NaN
  8113 143582.4              172.451             166.78     -2.836316    -1.782018      NaN
  8177 144715.2              174.332             168.678     -2.829044    -1.799144      NaN
  8241 145848.0              176.22             170.57     -3.914087    -2.928854      NaN
  8305 146980.8              178.113             172.463     -0.262495     0.681641      NaN
  8369 148113.6              180.003             174.357     -2.887876    -1.955383      NaN
  8433 149246.4              181.889             176.252    -16.0803   -15.1567 0.913075
  8497 150379.2              183.775             178.145     -4.354443    -3.513599 0.912174
  8561 151512.0              185.662             180.042     -3.044827    -2.276910 0.911252
  8625 152644.8              187.55             181.94     -2.918074    -2.182757 0.910309
  8689 153777.6              189.433             183.839     -3.088393    -2.423055 0.909343
  8753 154910.4              191.331             185.735     -3.070757    -2.461494 0.908353
  8817 156043.2              193.216             187.631     -3.019108    -2.467790 0.907336
  8881 157176.0              195.101             189.531     -2.940973    -2.459782 0.906287
  8945 158308.8              196.995             191.431     -2.834870    -2.285763 0.905206
  9009 159441.6              198.883             193.33     -2.993483    -2.437579 0.904092
  9073 160574.4              200.758             195.227     -2.903442    -2.551701 0.902940
  9137 161707.2              202.651             197.119     -2.991956    -2.673623 0.901750
  9201 162840.0              204.546             199.013     -2.985598    -2.597324 0.900516
  9265 163972.8              206.433             200.906     -2.916409    -2.537794 0.899233
  9329 165105.6              208.322             202.801     -2.885314    -2.626821 0.897897
  9393 166238.4              210.211             204.694     -3.002061    -2.827343 0.896505
  9457 167371.2              212.094             206.589     -2.965510    -2.938009 0.895049
  9521 168504.0              213.99             208.488     -2.943491    -2.841332 0.893520
  9585 169636.8              215.873             210.39     -3.054824    -2.870759 0.891914
  9649 170769.6              217.767             212.295     -2.801964    -2.761775 0.890222
  9713 171902.4              219.649             214.204     -3.023686    -3.111608 0.888433
  9777 173035.2              221.534             216.108     -2.977030    -2.919793 0.886546
  9841 174168.0              223.429             218.012     -2.871807    -2.867768 0.884546
  9905 175300.8              225.317             219.921     -3.093800    -3.134399 0.882413
  9969 176433.6              227.195             221.829     -3.196497    -3.359318 0.880137
 10033 177566.4              229.088             223.729     -2.856991    -3.015864 0.877712
 10097 178699.2              230.983             225.627     -3.273674    -3.358294 0.875109
 10161 179832.0              232.862             227.529     -3.098203    -3.310869 0.872296
 10225 180964.8              234.752             229.425     -3.306221    -3.303864 0.869259
 10289 182097.6              236.642             231.324     -3.438238    -3.665069 0.865950
 10353 183230.4              238.535             233.223     -3.271694    -3.570373 0.862332
 10417 184363.2              240.416             235.124     -3.454476    -3.761591 0.858351
 10481 185496.0              242.299             237.026     -3.689731    -4.118763 0.853947
 10545 186628.8              244.19             238.923     -4.039032    -4.356133 0.849062
 10609 187761.6              246.089             240.821     -3.916733    -4.260340 0.843586
 10673 188894.4              247.965             242.72     -4.022018    -4.418270 0.837407
 10737 190027.2              249.862             244.62     -4.592367    -4.914114 0.830383
 10801 191160.0              251.74             246.521     -4.936557    -5.349669 0.822325
 10865 192292.8              253.637             248.417     -5.172221    -5.773745 0.813032
 10929 193425.6              255.519             250.316     -5.885626    -6.338931 0.802167
 10993 194558.4              257.411             252.215     -6.423936    -6.876366 0.789363
 11057 195691.2              259.298             254.115     -7.250434    -7.652197 0.774073
 11121 196824.0              261.182             256.011     -8.260187    -8.654241 0.755629
 11185 197956.8              263.074             257.912     -9.829165   -10.1761 0.732933
 11249 199089.6              264.955             259.806    -11.5955   -11.8722 0.704628
 11313 200222.4              266.851             261.702    -14.6047   -15.1229 0.668190
 11377 201355.2              268.735             263.594    -19.0937   -19.4968 0.619669
 11441 202488.0              270.63             265.491    -26.3964   -26.8065 0.551076
 11505 203620.8              272.506             267.389    -38.3589   -38.6861 0.445354
 11569 204753.6              274.399             269.278    -56.6083   -56.9985 0.256243
 11633 205886.4              276.291             271.165    -60.1285   -60.644      NaN
 11697 207019.2              278.18             273.061     -8.162169    -8.616074      NaN
 11761 208152.0              280.066             274.961     -6.097427    -6.519033      NaN
 11825 209284.8              281.953             276.859     -6.027440    -6.575484      NaN
 11889 210417.6              283.841             278.759     -6.029905    -6.438780      NaN
 11953 211550.4              285.728             280.656     -5.979903    -6.468305      NaN
 12017 212683.2              287.619             282.552     -6.023643    -6.557114      NaN
 12081 213816.0              289.499             284.448     -6.012058    -6.435312      NaN
 12145 214948.8              291.388             286.335     -5.973000    -6.481746      NaN
 12209 216081.6              293.277             288.22     -5.920741    -6.404159      NaN
 12273 217214.4              295.171             290.105     -5.884008    -6.379667      NaN
 12337 218347.2              297.056             291.985     -5.791913    -6.290089      NaN
 12401 219480.0              298.937             293.853     -5.773353    -6.281084      NaN
 12465 220612.8              300.832             295.717     -5.741276    -6.206306      NaN
 12529 221745.6              302.716             297.61     -5.792089    -6.272868      NaN
 12593 222878.4              304.614             299.503     -5.781363    -6.285173      NaN
 12657 224011.2              306.494             301.39     -5.729701    -6.239052      NaN
 12721 225144.0              308.382             303.271     -5.691288    -6.234157      NaN
 12785 226276.8              310.269             305.153     -5.660209    -6.231108      NaN
 12849 227409.6              312.159             307.038     -5.642367    -6.258348      NaN
 12900 228312.3              313.666             308.541     -5.624466    -6.302053      NaN