Folder: NH3_Calorimetry/z_unorganized_archive/i_data_processed/old_wt%

Note: z_unorganized_archive/i_data_processed/old_wt%/1.62wt%_peaks.txt
Index  Time(s)  Furnace Temperature(K)  Sample Temperature(K)  HeatFlow(mW)  Q_Corrected
  8095 136788.6              161.132391             155.421851     -4.505824    -3.441261
  8667 146455.4              177.240256             171.563429    -26.147903   -25.474279
  8702 147046.9              178.220389             172.554007     -2.261730    -1.642283
  8868 149852.3              182.899237             177.246252    -66.353945   -65.784563
 12306 207954.5              279.734187             274.544369   -389.406970  -389.941684

Note: z_unorganized_archive/i_data_processed/old_wt%/3.2wt%_liquidus.txt
Index                      12148.000000
Time(s)                   205284.300000
Furnace Temperature(K)       275.283249
Sample Temperature(K)        270.085251
HeatFlow(mW)                -239.958375
Q_Corrected                 -240.470785
Fc                             0.004101

Note: z_unorganized_archive/i_data_processed/old_wt%/5.83wt%_liquidus.txt
Index                      12012.000000
Time(s)                   202985.900000
Furnace Temperature(K)       271.450839
Sample Temperature(K)        266.268540
HeatFlow(mW)                -160.318902
Q_Corrected                 -160.883692
Fc                             0.002676

Note: z_unorganized_archive/i_data_processed/old_wt%/5.83wt%_peaks.txt
Index  Time(s)  Furnace Temperature(K)  Sample Temperature(K)  HeatFlow(mW)  Q_Corrected
  7995 135098.6              158.310156             152.636221     24.199972    25.298912
  8642 146032.9              176.536665             170.887854    -20.045038   -19.327727
  8667 146455.4              177.234221             171.594641     -2.103177    -1.429553
  8882 150088.9              183.290419             177.655745   -127.449958  -126.974528
 12081 204152.0              273.399283             268.212608   -170.036221  -170.459475

Note: z_unorganized_archive/i_data_processed/old_wt%/7.85wt%_liquidus.txt
Index                      11893.000000
Time(s)                   200974.800000
Furnace Temperature(K)       268.102591
Sample Temperature(K)        262.920618
HeatFlow(mW)                -119.424965
Q_Corrected                 -119.861192
Fc                             0.002028

Note: z_unorganized_archive/i_data_processed/old_wt%/8wt%_liquidus.txt
Index                      11884.000000
Time(s)                   200822.700000
Furnace Temperature(K)       267.850069
Sample Temperature(K)        262.666470
HeatFlow(mW)                -120.157344
Q_Corrected                 -120.560928
Fc                             0.001635

Note: z_unorganized_archive/README.md
# <u>Calorimetry Analysis</u>
*Repository for analysis code for the calorimetry data of NH3-H2O systems*

Folders:
archive_jack			contributions by Jack DIAB
i_data					.csv files of outputs from the calorimeter (Calisto Program). The first 8 rows are metadata.
i_data_processed		various files resulting from outputs of processing scripts, and data files from literature.
o_heatFlow				outputs and plots pertaining to heat flow
o_specificHeat			outputs and plots pertaining to specific heat
o_unclassifiedFigures	figures that are recently plotted and have no determined classification yet
z_meetings				files used in meetings. They serve as periodic summaries of work done
z_scripts				scripts used.

Note: this is still a work in progress. Scripts, files and folder organization are not final and may not be well documented and accessible. Do contact Bing Hong CHUA at bing.hong.chua@jpl.nasa.gov for assistance.

File: 0wt%_climb_proc.txt
 Index  Time(s)  Furnace Temperature(K)  Sample Temperature(K)  HeatFlow(mW)  Q_Corrected  Fc
  6001 101400.0              102.133              99.8333     -2.390259    -1.906270 NaN
  6062 102430.9              103.849             100.734     -3.275746    -2.781993 NaN
  6123 103461.8              105.57             101.858     -3.875427    -3.377786 NaN
  6184 104492.7              107.283             103.145     -4.316160    -3.824221 NaN
  6245 105523.6              109             104.543     -4.640173    -4.148044 NaN
  6306 106554.5              110.731             106.025     -4.901321    -4.300383 NaN
  6367 107585.4              112.433             107.564     -5.078364    -4.185086 NaN
  6428 108616.3              114.174             109.141     -5.227443    -4.189891 NaN
  6489 109647.2              115.883             110.748     -5.338996    -4.191216 NaN
  6550 110678.1              117.602             112.386     -5.474490    -4.246408 NaN
  6611 111709.0              119.323             114.034     -5.552299    -4.272269 NaN
  6672 112739.9              121.041             115.696     -5.633107    -4.313928 NaN
  6733 113770.8              122.757             117.372     -5.713611    -4.377513 NaN
  6794 114801.7              124.477             119.052     -5.753051    -4.394004 NaN
  6855 115832.6              126.194             120.738     -5.805220    -4.451269 NaN
  6916 116863.5              127.923             122.423     -5.836612    -4.476989 NaN
  6977 117894.4              129.626             124.116     -5.873017    -4.519204 NaN
  7038 118925.3              131.358             125.81     -5.916151    -4.583663 NaN
  7099 119956.2              133.078             127.508     -5.959930    -4.631657 NaN
  7160 120987.1              134.787             129.212     -6.001565    -4.689716 NaN
  7221 122018.0              136.513             130.914     -6.023690    -4.726833 NaN
  7282 123048.9              138.223             132.613     -6.040437    -4.760877 NaN
  7343 124079.8              139.936             134.312     -6.085630    -4.814425 NaN
  7404 125110.7              141.662             136.007     -6.104265    -4.850121 NaN
  7465 126141.6              143.378             137.71     -6.160478    -4.913589 NaN
  7526 127172.5              145.092             139.412     -6.190338    -4.965489 NaN
  7587 128203.4              146.825             141.12     -6.249281    -5.025667 NaN
  7648 129234.3              148.537             142.829     -6.278421    -5.063082 NaN
  7709 130265.2              150.253             144.541     -6.327178    -5.131771 NaN
  7770 131296.1              151.965             146.258     -6.370986    -5.190087 NaN
  7831 132327.0              153.678             147.974     -6.402235    -5.248633 NaN
  7892 133357.9              155.414             149.685     -6.418610    -5.271633 NaN
  7953 134388.8              157.13             151.399     -6.447094    -5.337562 NaN
  8014 135419.7              158.848             153.114     -6.463754    -5.366503 NaN
  8075 136450.6              160.544             154.83     -6.498915    -5.416792 NaN
  8136 137481.5              162.29             156.54     -6.501771    -5.437093 NaN
  8197 138512.4              164.001             158.252     -6.533420    -5.502694 NaN
  8258 139543.3              165.722             159.966     -6.578221    -5.572398 NaN
  8319 140574.2              167.437             161.686     -6.610796    -5.649523 NaN
  8380 141605.1              169.156             163.409     -6.653278    -5.715473 NaN
  8441 142636.0              170.874             165.131     -6.630506    -5.702644 NaN
  8502 143666.9              172.595             166.855     -6.695162    -5.869879 NaN
  8563 144697.8              174.302             168.58     -6.732358    -5.956656 NaN
  8624 145728.7              176.029             170.302     -6.703716    -5.976443 NaN
  8685 146759.6              177.749             172.02     -6.740594    -6.071164 NaN
  8746 147790.5              179.467             173.738     -6.752963    -6.160635 NaN
  8807 148821.4              181.182             175.452     -6.736485    -6.097608 1.0
  8868 149852.3              182.907             177.175     -6.763795    -6.194413 1.0
  8929 150883.2              184.621             178.902     -6.864633    -6.344400 1.0
  8990 151914.1              186.34             180.631     -6.834854    -6.358144 1.0
  9051 152945.0              188.054             182.365     -6.887682    -6.478369 1.0
  9112 153975.9              189.775             184.102     -6.885691    -6.465838 1.0
  9173 155006.8              191.496             185.844     -6.930624    -6.550110 1.0
  9234 156037.7              193.204             187.585     -6.943878    -6.559104 1.0
  9295 157068.6              194.923             189.319     -7.004250    -6.628550 1.0
  9356 158099.5              196.646             191.054     -6.832151    -6.530975 1.0
  9417 159130.4              198.369             192.794     -6.862269    -6.879203 1.0
  9478 160161.3              200.078             194.53     -6.754696    -6.638024 1.0
  9539 161192.2              201.793             196.265     -6.978698    -6.909384 1.0
  9600 162223.1              203.514             197.994     -6.984374    -6.795184 1.0
  9661 163254.0              205.235             199.722     -6.925890    -6.809127 1.0
  9722 164284.9              206.95             201.455     -6.995889    -7.039920 1.0
  9783 165315.8              208.678             203.185     -6.829938    -6.832372 1.0
  9844 166346.7              210.387             204.915     -6.888078    -6.950875 1.0
  9905 167377.6              212.106             206.644     -7.004165    -7.044764 1.0
  9966 168408.5              213.827             208.374     -7.087152    -7.249009 1.0
 10027 169439.4              215.543             210.104     -7.014596    -7.113786 1.0
 10088 170470.3              217.264             211.835     -7.217741    -7.412870 1.0
 10149 171501.2              218.979             213.566     -7.034453    -7.304162 1.0
 10210 172532.1              220.697             215.295     -7.018314    -7.180906 1.0
 10271 173563.0              222.418             217.025     -7.203737    -7.495258 1.0
 10332 174593.9              224.136             218.755     -7.226947    -7.684757 1.0
 10393 175624.8              225.852             220.483     -7.151727    -7.554285 1.0
 10454 176655.7              227.572             222.213     -7.526021    -7.910927 1.0
 10515 177686.6              229.29             223.941     -6.981232    -7.284101 1.0
 10576 178717.5              231.007             225.668     -7.415080    -7.960724 1.0
 10637 179748.4              232.725             227.397     -7.263950    -7.661456 1.0
 10698 180779.3              234.445             229.123     -7.348082    -7.813072 1.0
 10759 181810.2              236.161             230.85     -7.546215    -8.066448 1.0
 10820 182841.1              237.88             232.576     -7.616019    -7.975152 1.0
 10881 183872.0              239.599             234.303     -7.589386    -8.069183 1.0
 10942 184902.9              241.316             236.031     -7.609304    -8.110915 1.0
 11003 185933.8              243.032             237.757     -7.632844    -8.181410 1.0
 11064 186964.7              244.748             239.482     -7.888097    -8.238596 1.0
 11125 187995.6              246.471             241.204     -7.806669    -8.223879 1.0
 11186 189026.5              248.2             242.93     -7.823171    -8.167315 1.0
 11247 190057.4              249.9             244.66     -7.996912    -8.272721 1.0
 11308 191088.3              251.628             246.384     -7.824895    -8.285847 1.0
 11369 192119.2              253.341             248.111     -7.877502    -8.341817 1.0
 11430 193150.1              255.06             249.836     -8.112126    -8.529469 1.0
 11491 194181.0              256.777             251.564     -8.125942    -8.528186 1.0
 11552 195211.9              258.497             253.287     -8.080230    -8.486042 1.0
 11613 196242.8              260.22             255.009     -8.182133    -8.576628 1.0
 11674 197273.7              261.931             256.736     -8.164141    -8.582870 1.0
 11735 198304.6              263.656             258.461     -8.252374    -8.724093 1.0
 11796 199335.5              265.369             260.187     -8.328786    -8.818672 1.0
 11857 200366.4              267.09             261.911     -8.387745    -8.904519 1.0
 11918 201397.3              268.806             263.637     -8.428837    -8.905423 1.0
 11979 202428.2              270.53             265.364     -8.571488    -9.029898 1.0
 12040 203459.1              272.244             267.092     -8.655515    -9.130950 1.0
 12101 204490.0              273.963             268.82     -8.735051    -9.194217 1.0
 12162 205520.9              275.682             270.546     -8.770614    -9.286289 1.0
 12223 206551.8              277.4             272.272     -8.923630    -9.421291 1.0
 12284 207582.7              279.114             273.998    -52.4285   -52.9319 NaN
 12345 208613.6              280.835             275.702   -260.065  -260.538 NaN
 12406 209644.5              282.548             277.384   -391.509  -392.014 NaN
 12467 210675.4              284.267             279.081   -188.909  -189.378 NaN
 12528 211706.3              285.989             280.823    -22.1322   -22.6189 NaN
 12589 212737.2              287.711             282.567    -17.9582   -18.4489 NaN
 12650 213768.1              289.425             284.308    -17.7954   -18.3038 NaN
 12711 214799.0              291.129             286.037    -17.6627   -18.2075 NaN
 12772 215829.9              292.858             287.752    -17.4649   -18.0368 NaN
 12833 216860.8              294.581             289.469    -17.4201   -18.0237 NaN
 12894 217891.7              296.298             291.188    -17.3829   -18.0594 NaN
 12900 217993.1              296.467             291.357    -17.3673   -18.0449 NaN

File: 1.6wt%_peaks.txt
 Index  Time(s)  Furnace Temperature(K)  Sample Temperature(K)  HeatFlow(mW)  Q_Corrected
  6010 101552.1              106.088             106.283     -0.474754     0.024143
  6164 104154.7              106.135             106.269     -0.494004     0.010167
  6894 116491.7              127.289             121.845    -10.6461    -9.299125
  7727 130569.4              150.756             145.066    -11.5726   -10.3837
  8095 136788.6              161.132             155.422     -4.505824    -3.441261
  8446 142720.5              171.012             165.323    -12.0113   -11.0828
  8667 146455.4              177.24             171.563    -26.1479   -25.4743
  8702 147046.9              178.22             172.554     -2.261730    -1.642283
  8868 149852.3              182.899             177.246    -66.3539   -65.7846
  9023 152471.8              187.262             181.635    -13.5348   -12.9827
  9510 160702.1              200.986             195.424    -14.3366   -14.3717
  9575 161800.6              202.815             197.264    -14.2738   -14.0184
  9800 165603.1              209.144             203.636    -14.9411   -15.2468
  9878 166921.3              211.348             205.835    -14.8878   -14.8427
 10420 176081.1              226.618             221.211    -16.0172   -16.3026
 12306 207954.5              279.734             274.544   -389.407  -389.942

File: 1.62wt%_climb_proc.txt
 Index  Time(s)  Furnace Temperature(K)  Sample Temperature(K)  HeatFlow(mW)  Q_Corrected       Fc
  6001 101400.0              106.087             106.285     -0.475387     0.008602      NaN
  6063 102447.8              106.103             106.276     -0.518290    -0.016176      NaN
  6125 103495.6              106.115             106.276     -0.557965    -0.072693      NaN
  6187 104543.4              107.147             106.311     -0.969774    -0.468821      NaN
  6249 105591.2              109.068             106.823     -3.541388    -3.038053      NaN
  6311 106639.0              110.822             107.636     -4.960962    -4.305087      NaN
  6373 107686.8              112.591             108.682     -6.124328    -5.216575      NaN
  6435 108734.6              114.387             109.925     -7.154055    -6.096041      NaN
  6497 109782.4              116.126             111.317     -7.917578    -6.758182      NaN
  6559 110830.2              117.892             112.824     -8.569726    -7.340250      NaN
  6621 111878.0              119.626             114.423     -9.131388    -7.850398      NaN
  6683 112925.8              121.36             116.073     -9.495827    -8.176972      NaN
  6745 113973.6              123.105             117.752     -9.819376    -8.478051      NaN
  6807 115021.4              124.844             119.448    -10.1908    -8.838558      NaN
  6869 116069.2              126.591             121.156    -10.5786    -9.227882      NaN
  6931 117117.0              128.341             122.869    -10.617    -9.270836      NaN
  6993 118164.8              130.085             124.587    -10.6235    -9.283447      NaN
  7055 119212.6              131.838             126.313    -10.7314    -9.393428      NaN
  7117 120260.4              133.57             128.037    -10.7551    -9.435406      NaN
  7179 121308.2              135.315             129.765    -10.8649    -9.553478      NaN
  7241 122356.0              137.061             131.485    -10.8989    -9.596663      NaN
  7303 123403.8              138.823             133.207    -10.985    -9.701061      NaN
  7365 124451.6              140.567             134.935    -11.0978    -9.834838      NaN
  7427 125499.4              142.313             136.671    -11.194    -9.932385      NaN
  7489 126547.2              144.06             138.404    -11.2904   -10.0534      NaN
  7551 127595.0              145.792             140.138    -11.3604   -10.132      NaN
  7613 128642.8              147.551             141.869    -11.4452   -10.2218      NaN
  7675 129690.6              149.291             143.606    -11.5335   -10.3268      NaN
  7737 130738.4              151.037             145.346    -11.5607   -10.3742      NaN
  7799 131786.2              152.779             147.089    -11.4517   -10.2887      NaN
  7861 132834.0              154.532             148.83    -11.0151    -9.859949      NaN
  7923 133881.8              156.283             150.571     -9.950495    -8.837118      NaN
  7985 134929.6              158.026             152.316     -7.834277    -6.717146      NaN
  8047 135977.4              159.774             154.067     -5.413876    -4.315888      NaN
  8109 137025.2              161.521             155.818     -4.566216    -3.507326      NaN
  8171 138073.0              163.264             157.565     -7.971480    -6.919915      NaN
  8233 139120.8              165.009             159.313    -11.3601   -10.343      NaN
  8295 140168.6              166.766             161.063    -11.9779   -10.9951      NaN
  8357 141216.4              168.497             162.812    -12.017   -11.1006      NaN
  8419 142264.2              170.246             164.562    -12.1204   -11.1967      NaN
  8481 143312.0              171.998             166.312    -12.2416   -11.3747      NaN
  8543 144359.8              173.741             168.064    -12.3352   -11.5282      NaN
  8605 145407.6              175.489             169.815    -12.7843   -12.0044      NaN
  8667 146455.4              177.24             171.563    -26.1479   -25.4743      NaN
  8729 147503.2              178.988             173.318     -7.396741    -6.758514      NaN
  8791 148551.0              180.733             175.07    -12.742   -12.1447      NaN
  8853 149598.8              182.472             176.824    -32.9881   -32.3293 0.950297
  8915 150646.6              184.221             178.576    -15.6708   -15.1038 0.949819
  8977 151694.4              185.969             180.332    -13.5755   -13.0793 0.949331
  9039 152742.2              187.709             182.088    -13.4615   -13.0327 0.948832
  9101 153790.0              189.465             183.843    -13.6903   -13.2702 0.948322
  9163 154837.8              191.214             185.599    -13.7688   -13.4303 0.947800
  9225 155885.6              192.957             187.354    -13.9318   -13.4991 0.947265
  9287 156933.4              194.695             189.112    -13.9954   -13.6692 0.946715
  9349 157981.2              196.445             190.866    -13.9608   -13.6609 0.946151
  9411 159029.0              198.191             192.621    -14.1589   -14.1349 0.945570
  9473 160076.8              199.938             194.376    -14.1232   -13.9948 0.944971
  9535 161124.6              201.68             196.133    -14.3244   -14.2605 0.944352
  9597 162172.4              203.428             197.888    -14.3575   -14.1928 0.943713
  9659 163220.2              205.176             199.643    -14.4829   -14.3778 0.943052
  9721 164268.0              206.919             201.399    -14.5751   -14.6366 0.942365
  9783 165315.8              208.671             203.154    -14.8515   -14.8539 0.941654
  9845 166363.6              210.417             204.903    -14.9618   -15.0322 0.940916
  9907 167411.4              212.168             206.655    -14.9493   -14.995 0.940146
  9969 168459.2              213.903             208.41    -14.9932   -15.156 0.939341
 10031 169507.0              215.655             210.165    -15.1313   -15.2532 0.938500
 10093 170554.8              217.406             211.92    -15.5714   -15.7359 0.937618
 10155 171602.6              219.151             213.679    -15.582   -15.861 0.936691
 10217 172650.4              220.899             215.44    -15.8053   -15.8619 0.935713
 10279 173698.2              222.642             217.204    -15.8724   -16.144 0.934681
 10341 174746.0              224.392             218.967    -16.1543   -16.4655 0.933590
 10403 175793.8              226.137             220.728    -16.1269   -16.5391 0.932434
 10465 176841.6              227.88             222.488    -16.3002   -16.7568 0.931207
 10527 177889.4              229.626             224.25    -16.6922   -17.0607 0.929897
 10589 178937.2              231.382             226.011    -16.9071   -17.3821 0.928495
 10651 179985.0              233.118             227.773    -16.9829   -17.2618 0.926991
 10713 181032.8              234.868             229.531    -17.4522   -17.8391 0.925374
 10775 182080.6              236.612             231.29    -17.7451   -18.1789 0.923624
 10837 183128.4              238.36             233.046    -18.0101   -18.4342 0.921726
 10899 184176.2              240.107             234.805    -18.3291   -18.7969 0.919654
 10961 185224.0              241.85             236.564    -18.5614   -18.8625 0.917381
 11023 186271.8              243.598             238.322    -19.192   -20.0186 0.914877
 11085 187319.6              245.343             240.079    -19.6004   -19.9747 0.912104
 11147 188367.4              247.091             241.836    -20.0436   -20.4799 0.909014
 11209 189415.2              248.838             243.591    -20.9236   -21.2946 0.905548
 11271 190463.0              250.583             245.348    -21.7081   -22.0295 0.901631
 11333 191510.8              252.331             247.105    -22.6488   -23.1526 0.897173
 11395 192558.6              254.078             248.861    -23.6007   -24.0058 0.892062
 11457 193606.4              255.82             250.618    -24.9698   -25.4868 0.886154
 11519 194654.2              257.567             252.371    -26.3928   -26.6712 0.879271
 11581 195702.0              259.315             254.126    -28.3081   -28.6497 0.871160
 11643 196749.8              261.062             255.881    -30.8492   -31.4008 0.861496
 11705 197797.6              262.806             257.635    -34.0925   -34.5166 0.849836
 11767 198845.4              264.555             259.391    -38.5133   -38.9545 0.835502
 11829 199893.2              266.3             261.147    -44.4108   -44.9358 0.817525
 11891 200941.0              268.046             262.9    -53.0714   -53.4889 0.794366
 11953 201988.8              269.792             264.65    -65.8838   -66.3722 0.763283
 12015 203036.6              271.54             266.399    -85.6116   -86.1615 0.718898
 12077 204084.4              273.286             268.146   -116.571  -116.976 0.649158
 12139 205132.2              275.033             269.889   -166.177  -166.664 0.518585
 12201 206180.0              276.775             271.624   -245.917  -246.436 0.145881
 12263 207227.8              278.525             273.348   -342.216  -342.724      NaN
 12325 208275.6              280.267             275.072   -371.784  -372.316      NaN
 12387 209323.4              282.019             276.83    -70.4888   -70.9513      NaN
 12449 210371.2              283.77             278.611    -36.643   -37.105      NaN
 12511 211419.0              285.506             280.385    -35.1729   -35.6498      NaN
 12573 212466.8              287.258             282.149    -34.892   -35.3828      NaN
 12635 213514.6              289.004             283.911    -34.785   -35.2831      NaN
 12697 214562.4              290.752             285.67    -34.7313   -35.2755      NaN
 12759 215610.2              292.495             287.427    -34.6049   -35.1805      NaN
 12821 216658.0              294.239             289.181    -34.5597   -35.151      NaN
 12883 217705.8              295.986             290.933    -34.4366   -35.0907      NaN
 12900 217993.1              296.462             291.413    -34.3536   -35.0312      NaN