Folder: NH3_Calorimetry/z_unorganized_archive/i_data_processed/old_wt% (part 2)

File: 5.83wt%_climb_proc.txt
 Index  Time(s)  Furnace Temperature(K)  Sample Temperature(K)  HeatFlow(mW)  Q_Corrected       Fc
  6001 101400.0              108.714             109.128     -0.146204     0.337785      NaN
  6063 102447.8              108.65             109.048     -0.169472     0.332642      NaN
  6125 103495.6              108.554             108.966     -0.157665     0.327607      NaN
  6187 104543.4              108.459             108.884     -0.140198     0.360755      NaN
  6249 105591.2              108.566             108.799     -0.147506     0.355829      NaN
  6311 106639.0              110.862             109.104     -2.663445    -2.007570      NaN
  6373 107686.8              112.603             109.841     -4.613945    -3.706192      NaN
  6435 108734.6              114.351             110.853     -5.989595    -4.931581      NaN
  6497 109782.4              116.106             112.07     -7.049848    -5.890452      NaN
  6559 110830.2              117.845             113.43     -7.859311    -6.629835      NaN
  6621 111878.0              119.609             114.89     -8.495677    -7.214687      NaN
  6683 112925.8              121.353             116.423     -9.089185    -7.770330      NaN
  6745 113973.6              123.086             118.014     -9.751577    -8.410252      NaN
  6807 115021.4              124.849             119.642    -10.655    -9.302682      NaN
  6869 116069.2              126.599             121.295    -11.6148   -10.2641      NaN
  6931 117117.0              128.325             122.976    -11.3706   -10.0244      NaN
  6993 118164.8              130.087             124.662    -11.2319    -9.891889      NaN
  7055 119212.6              131.833             126.362    -11.3814   -10.0435      NaN
  7117 120260.4              133.575             128.072    -11.5258   -10.2061      NaN
  7179 121308.2              135.336             129.786    -11.6318   -10.3204      NaN
  7241 122356.0              137.06             131.512    -11.7703   -10.4681      NaN
  7303 123403.8              138.829             133.236    -11.8492   -10.5653      NaN
  7365 124451.6              140.554             134.965    -11.9192   -10.6563      NaN
  7427 125499.4              142.311             136.699    -12.0496   -10.788      NaN
  7489 126547.2              144.06             138.428    -12.0822   -10.8452      NaN
  7551 127595.0              145.79             140.164    -12.1978   -10.9694      NaN
  7613 128642.8              147.564             141.899    -12.2594   -11.036      NaN
  7675 129690.6              149.283             143.641    -12.254   -11.0474      NaN
  7737 130738.4              151.045             145.378    -11.8334   -10.6469      NaN
  7799 131786.2              152.778             147.117    -10.3356    -9.172560      NaN
  7861 132834.0              154.53             148.858     -5.812336    -4.657172      NaN
  7923 133881.8              156.285             150.606      6.265816     7.379193      NaN
  7985 134929.6              158.025             152.354     23.6075    24.7246      NaN
  8047 135977.4              159.763             154.102      6.751909     7.849897      NaN
  8109 137025.2              161.523             155.847     -9.702070    -8.643180      NaN
  8171 138073.0              163.266             157.594    -11.1155   -10.064      NaN
  8233 139120.8              165.012             159.346    -11.5679   -10.5508      NaN
  8295 140168.6              166.76             161.093    -11.7301   -10.7474      NaN
  8357 141216.4              168.497             162.845    -11.7967   -10.8803      NaN
  8419 142264.2              170.251             164.591    -11.7974   -10.8737      NaN
  8481 143312.0              171.994             166.34    -12.0133   -11.1464      NaN
  8543 144359.8              173.749             168.094    -12.2782   -11.4713      NaN
  8605 145407.6              175.488             169.844    -14.41   -13.6302      NaN
  8667 146455.4              177.234             171.595     -2.103177    -1.429553      NaN
  8729 147503.2              178.989             173.347    -12.4009   -11.7627      NaN
  8791 148551.0              180.726             175.097    -13.6159   -13.0186 0.822793
  8853 149598.8              182.473             176.846   -113.498  -112.839 0.821108
  8915 150646.6              184.226             178.588    -29.85   -29.2831 0.819398
  8977 151694.4              185.967             180.348    -15.3169   -14.8207 0.817637
  9039 152742.2              187.718             182.109    -15.446   -15.0172 0.815836
  9101 153790.0              189.463             183.865    -15.5442   -15.1241 0.814001
  9163 154837.8              191.202             185.623    -15.5337   -15.1952 0.812120
  9225 155885.6              192.955             187.379    -15.8785   -15.4458 0.810193
  9287 156933.4              194.702             189.139    -15.8884   -15.5622 0.808209
  9349 157981.2              196.438             190.896    -16.0337   -15.7338 0.806175
  9411 159029.0              198.194             192.652    -16.3448   -16.3208 0.804081
  9473 160076.8              199.944             194.406    -16.3557   -16.2273 0.801926
  9535 161124.6              201.69             196.163    -16.5792   -16.5153 0.799697
  9597 162172.4              203.429             197.917    -16.7551   -16.5903 0.797397
  9659 163220.2              205.18             199.669    -16.9367   -16.8315 0.795021
  9721 164268.0              206.921             201.426    -17.4217   -17.4833 0.792549
  9783 165315.8              208.676             203.182    -17.1596   -17.162 0.789983
  9845 166363.6              210.413             204.939    -17.5889   -17.6593 0.787313
  9907 167411.4              212.162             206.693    -17.7082   -17.7538 0.784538
  9969 168459.2              213.91             208.445    -18.0992   -18.262 0.781643
 10031 169507.0              215.655             210.2    -18.3708   -18.4926 0.778613
 10093 170554.8              217.407             211.954    -18.5415   -18.706 0.775439
 10155 171602.6              219.148             213.712    -18.8292   -19.1083 0.772100
 10217 172650.4              220.896             215.471    -19.3782   -19.4348 0.768585
 10279 173698.2              222.638             217.227    -19.7526   -20.0242 0.764883
 10341 174746.0              224.391             218.982    -20.1571   -20.4683 0.760970
 10403 175793.8              226.142             220.743    -20.7059   -21.1181 0.756811
 10465 176841.6              227.88             222.504    -20.5962   -21.0528 0.752388
 10527 177889.4              229.632             224.263    -21.3585   -21.727 0.747677
 10589 178937.2              231.371             226.022    -21.9939   -22.4689 0.742640
 10651 179985.0              233.122             227.778    -22.6611   -22.94 0.737241
 10713 181032.8              234.873             229.541    -23.4548   -23.8417 0.731405
 10775 182080.6              236.605             231.296    -24.076   -24.5098 0.725117
 10837 183128.4              238.362             233.05    -24.7782   -25.2023 0.718298
 10899 184176.2              240.106             234.806    -25.8287   -26.2965 0.710848
 10961 185224.0              241.852             236.563    -26.7123   -27.0134 0.702680
 11023 186271.8              243.599             238.317    -28.0702   -28.8967 0.693692
 11085 187319.6              245.34             240.076    -29.5332   -29.9076 0.683704
 11147 188367.4              247.091             241.829    -30.9088   -31.345 0.672607
 11209 189415.2              248.839             243.585    -32.9596   -33.3306 0.660134
 11271 190463.0              250.577             245.34    -35.0429   -35.3643 0.646062
 11333 191510.8              252.333             247.091    -37.654   -38.1578 0.630082
 11395 192558.6              254.075             248.846    -40.8852   -41.2902 0.611735
 11457 193606.4              255.825             250.601    -45.0507   -45.5677 0.590514
 11519 194654.2              257.565             252.354    -49.3112   -49.5895 0.565791
 11581 195702.0              259.314             254.107    -55.345   -55.6867 0.536679
 11643 196749.8              261.063             255.86    -62.866   -63.4176 0.502010
 11705 197797.6              262.803             257.617    -72.4349   -72.859 0.460069
 11767 198845.4              264.549             259.365    -84.3566   -84.7977 0.408845
 11829 199893.2              266.3             261.114    -99.8531  -100.378 0.344681
 11891 200941.0              268.045             262.861   -118.4  -118.817 0.262092
 11953 201988.8              269.8             264.605   -139.967  -140.455 0.151406
 12015 203036.6              271.535             266.353   -161.282  -161.832      NaN
 12077 204084.4              273.287             268.1   -169.734  -170.14      NaN
 12139 205132.2              275.041             269.856   -118.522  -119.01      NaN
 12201 206180.0              276.777             271.626    -36.2126   -36.7319      NaN
 12263 207227.8              278.522             273.392    -33.1283   -33.636      NaN
 12325 208275.6              280.269             275.152    -32.8407   -33.3727      NaN
 12387 209323.4              282.021             276.907    -32.7403   -33.2027      NaN
 12449 210371.2              283.766             278.663    -32.7221   -33.1841      NaN
 12511 211419.0              285.508             280.421    -32.726   -33.2029      NaN
 12573 212466.8              287.255             282.175    -32.6792   -33.17      NaN
 12635 213514.6              289.003             283.928    -32.6632   -33.1612      NaN
 12697 214562.4              290.754             285.68    -32.652   -33.1962      NaN
 12759 215610.2              292.494             287.435    -32.6536   -33.2291      NaN
 12821 216658.0              294.235             289.184    -32.5633   -33.1547      NaN
 12883 217705.8              295.99             290.934    -32.5566   -33.2106      NaN
 12900 217993.1              296.465             291.414    -32.5527   -33.2303      NaN

File: 7.85wt%_peaks.txt
 Index  Time(s)  Furnace Temperature(K)  Sample Temperature(K)  HeatFlow(mW)  Q_Corrected
  7974 134743.7              157.724             151.985     44.9057    46.0166
  8615 145576.6              175.769             170.097    -13.9961   -13.2849
  8651 146185.0              176.789             171.115    -10.7385    -9.987216
  8892 150257.9              183.578             177.901   -166.933  -166.46
 10459 176740.2              227.664             222.291    -23.6709   -24.1189
 10538 178075.3              229.87             224.324    -22.0657   -22.3411
 11851 200265.0              266.922             261.735   -122.433  -123.02
 11892 200957.9              268.074             262.893   -119.348  -119.771
 11914 201329.7              268.695             263.514   -120.288  -120.767