Folder: NH3_Calorimetry/z_unorganized_archive/i_data_processed/z_KIV

Note: z_unorganized_archive/README.md
# <u>Calorimetry Analysis</u>
*Repository for analysis code for the calorimetry data of NH3-H2O systems*

Folders:
archive_jack			contributions by Jack DIAB
i_data					.csv files of outputs from the calorimeter (Calisto Program). The first 8 rows are metadata.
i_data_processed		various files resulting from outputs of processing scripts, and data files from literature.
o_heatFlow				outputs and plots pertaining to heat flow
o_specificHeat			outputs and plots pertaining to specific heat
o_unclassifiedFigures	figures that are recently plotted and have no determined classification yet
z_meetings				files used in meetings. They serve as periodic summaries of work done
z_scripts				scripts used.

Note: this is still a work in progress. Scripts, files and folder organization are not final and may not be well documented and accessible. Do contact Bing Hong CHUA at bing.hong.chua@jpl.nasa.gov for assistance.

File: mean_H2O-NH3_0g.csv
Index,Time(s),Furnace Temperature(K),Sample Temperature(K),HeatFlow(mW),Q_Corrected,T(K),Sample Temperature(K)_2
13683.3,242177,319.038,318.0,1.02518,1.02518,318.0,318.069
10342.5,183044,317.011,316.0,0.75486,0.75486,316.0,316.039
9409.0,166522,314.918,314.0,0.688971,0.688971,314.0,314.002
9895.07,175124.98,313.15,312.0,0.730551,0.730551,312.0,312.008
9849.07,174310.78,310.872,310.0,0.7300894,0.7300894,310.0,310.007
9952.74,176146,308.886,308.0,0.735492,0.735492,308.0,308.009
9971.68,176481,306.819,306.0,0.743102,0.743102,306.0,305.998
10146.5,179575,305.056,304.0,0.768784,0.768784,304.0,303.997
10096.5,178690,302.971,302.0,0.770855,0.770855,302.0,301.998
10047.3,177819,300.927,300.0,0.760768,0.760768,300.0,300.016
9997.28,176934,298.87,298.0,0.724424,0.724424,298.0,298.001
10174.5,180070.95,297.219,296.0,0.707621,0.707621,296.0,295.993
9897.07,175160,294.805,294.0,0.665494,0.665494,294.0,293.998
10071.1,178240,293.175,292.0,0.626277,0.626277,292.0,292.009
9796.86,173387,290.774,290.0,0.581298,0.581298,290.0,290.009
9746.86,172502,288.758,288.0,0.585386,0.585386,288.0,287.994
9696.65,171613,286.774,286.0,0.603989,0.603989,286.0,286.002
9646.65,170728,284.767,284.0,0.601522,0.601522,284.0,283.987
9597.44,169857,282.794,282.0,0.59704,0.59704,282.0,281.996
9547.44,168972,280.801,280.0,0.581151,0.581151,280.0,279.986
9497.44,168087,278.816,278.0,0.593689,0.593689,278.0,277.983
9448.23,167216,276.865,276.0,0.611315,0.611315,276.0,276.003
9198.27,162792,274.52,274.0,0.609179,0.609179,274.0,273.992
9293.79,164482,272.823,272.0,0.582868,0.582868,272.0,272.001
9299.44,164582,270.96,270.0,0.526062,0.526062,270.0,270
8997.28,159234,268.529,268.0,0.576367,0.576367,268.0,267.992
9006.91,159405,266.686,266.0,0.550264,0.550264,266.0,266.001
8959.68,158569,264.732,264.0,0.579693,0.579693,264.0,264.005
8911.68,157719,262.758,262.0,0.612696,0.612696,262.0,261.994
8864.45,156883,260.813,260.0,0.680785,0.680785,260.0,260.012
8816.68,156038,258.829,258.0,0.738433,0.738433,258.0,257.992
8769.68,155206,256.877,256.0,0.657016,0.657016,256.0,256.001
8721.91,154360,254.907,254.0,0.641031,0.641031,254.0,253.994
8500.38,150439,252.635,252.0,0.721016,0.721016,252.0,252.007
8454.38,149625,250.656,250.0,0.76231,0.76231,250.0,249.991
8409.13,148824,248.687,248.0,0.717079,0.717079,248.0,248.004
8363.13,148010,246.703,246.0,0.78471,0.78471,246.0,245.998
8156.85,144359,244.426,244.0,0.706751,0.706751,244.0,244.005
8272.13,146399.06,242.748,242.0,0.770443,0.770443,242.0,241.997
8227.13,145602.56,240.782,240.0,0.837963,0.837963,240.0,240.003
8181.38,144793,238.815,238.0,0.831814,0.831814,238.0,237.995
7981.28,141251,236.574,236.0,0.71772,0.71772,236.0,236.006
7937.28,140472,234.622,234.0,0.629031,0.629031,234.0,233.994
7748.43,137129,232.412,232.0,0.608894,0.608894,232.0,232.001
7651.35,135411,230.366,230.0,0.762032,0.762032,230.0,229.998
7664.6,135646,228.537,228.0,0.58433,0.58433,228.0,228.003
7623.32,134915,226.588,226.0,0.57237,0.57237,226.0,226.009
7392.57,130831,224.265,224.0,0.774517,0.774517,224.0,224.001
7540.32,133446,222.681,222.0,0.520728,0.520728,222.0,222
7368.25,130400,220.469,220.0,0.565284,0.565284,220.0,220.001
7406.46,131077,218.658,218.0,0.556831,0.556831,218.0,218.001
7288.67,128992,216.539,216.0,0.525718,0.525718,216.0,216.006
7127.8,126144,214.334,214.0,0.42219,0.42219,214.0,214.006
7158.36,126685,212.504,212.0,0.489579,0.489579,212.0,212.003
7170.67,126903,210.658,210.0,0.545594,0.545594,210.0,210
6962.06,123211,208.355,208.0,0.430313,0.430313,208.0,207.999
6976.27,123462,206.503,206.0,0.251057,0.251057,206.0,205.991
6938.96,122802,204.553,204.0,0.23769,0.23769,204.0,204.007
6851.625,121256,202.483,202.0,0.238903,0.238903,202.0,201.995
6815.25,120612,200.521,200.0,0.0321771,0.0321771,200.0,200.002
6721.38,118950.726,198.437,198.0,0.00874146,0.00874146,198.0,197.997
6686.06,118326,196.497,196.0,-0.0438669,-0.0438669,196.0,196.001
6551.67,115946.8,194.314,194.0,-0.302576,-0.302576,194.0,194.004
6567.45,116226,192.459,192.0,-0.374403,-0.374403,192.0,192.004
6533.1,115618,190.472,190.0,-0.412781,-0.412781,190.0,190.005
6450.0,114147.3,188.379,188.0,-0.619865,-0.619865,188.0,187.993
6416.33,113551,186.453,186.0,-0.636243,-0.636243,186.0,186.012
6382.67,112955.5,184.49,184.0,-0.557798,-0.557798,184.0,183.99
6261.85,110817,182.364,182.0,-0.616898,-0.616898,182.0,182.011
6229.85,110251,180.399,180.0,-0.708094,-0.708094,180.0,179.999
6197.85,109684,178.434,178.0,-0.675779,-0.675779,178.0,177.996
6122.24,108346,176.357,176.0,-0.577594,-0.577594,176.0,175.994
6135.19,108575,174.489,174.0,-0.718215,-0.718215,174.0,173.995
6026.45,106651,172.374,172.0,-0.74346,-0.74346,172.0,172.01
5922.87,104817,170.247,170.0,-0.607683,-0.607683,170.0,170.002
5894.5,104314.95,168.262,168.0,-0.734578,-0.734578,168.0,167.996
5867.13,103830,166.305,166.0,-0.668501,-0.668501,166.0,165.997
5839.13,103335,164.353,164.0,-0.695103,-0.695103,164.0,163.995
5771.06,102130,162.222,162.0,-0.621405,-0.621405,162.0,162.001
5719.02,101209,160.215,160.0,-0.670043,-0.670043,160.0,160.003
5693.02,100749,158.336,158.0,-0.766078,-0.766078,158.0,157.993
5629.17,99618.55,156.265,156.0,-0.740328,-0.740328,156.0,156.001
5642.4,99852.8,154.328,154.0,-0.610948,-0.610948,154.0,153.997
5559.25,98381,152.239,152.0,-0.765729,-0.765729,152.0,151.99
5535.25,97956.2,150.268,150.0,-0.689416,-0.689416,150.0,149.99
5458.14,96591.4,148.134,148.0,-0.771113,-0.771113,148.0,147.99
5487.64,97113.6,146.295,146.0,-0.741938,-0.741938,146.0,145.995
5464.04,96695.7,144.238,144.0,-0.718595,-0.718595,144.0,143.988
5390.53,95394.6,142.119,142.0,-0.731885,-0.731885,142.0,141.997
5368.12,94998.1,140.173,140.0,-0.815605,-0.815605,140.0,140.003
5300.67,93804.2,138.127,138.0,-0.8318,-0.8318,138.0,138.011
5324.33,94223.0,136.242,136.0,-0.844567,-0.844567,136.0,136.001
5218.08,92342.4,134.023,134.0,-0.833229,-0.833229,134.0,134.002
5228.25,92522.325,132.192,132.0,-0.8987,-0.8987,132.0,132.002
5181.08,91687.5,130.125,130.0,-0.830382,-0.830382,130.0,130.004
5190.42,91852.675,128.241,128.0,-0.800849,-0.800849,128.0,128
5075.3,89815,126.052,126.0,-0.862163,-0.862163,126.0,126.004
5054.56,89447.9,124.118,124.0,-0.82612,-0.82612,124.0,123.989
4982.08,88165.1,122.036,122.0,-0.758116,-0.758116,122.0,121.998
4972.62,87997.6,120.132,120.0,-0.798323,-0.798323,120.0,119.999
4911.81,86921.3,118.039,118.0,-0.757274,-0.757274,118.0,118
4860.09,86005.8,116.005,116.0,-0.79607,-0.79607,116.0,115.998
4817.6,85253.9,113.992,114.0,-0.789685,-0.789685,114.0,113.995
4750.05,84058.2,111.961,112.0,-0.729995,-0.729995,112.0,112.005
4762.32,84275.3,109.987,110.0,-0.723139,-0.723139,110.0,109.993
4721.35,83550.2,107.901,108.0,-0.69592,-0.69592,108.0,107.999
4719.25,83513.025,105.933,106.0,-0.7078,-0.7078,106.0,106
4766.35,84346.6,103.901,104.0,-0.676691,-0.676691,104.0,103.986
4914.87,86975.5,101.898,102.0,-0.656758,-0.656758,102.0,101.966
4845.17,85741.9,99.8262,100.0,-0.607233,-0.607233,100.0,99.9868