Folder: NH3_Calorimetry/z_unorganized_archive/archive_jack/Data

Note: z_unorganized_archive/archive_jack/README.md
# <u>Calorimetry Analysis</u>
*Repository for analysis code for the calorimetry data of NH3-H2O systems*

All data is saved as CSVs with the first 8 rows being metadata. The plots show the temperature profile, heat flow, heat capacity (even though it is not correct over the entire curve yet due to fractional crystallization), and lastly a Shomate curve fit of the data with peaks removed. 
For the code ('CalorimeterProcessing.py'), you can ask me any questions you like, but this it is pretty basic and was just helpful for me to organize and play with the data. If you just want to look at the data, all you really have to use is 'plots()' explained below.

The 'plot()' functions just allows you to plot all the samples or just one. You either pass 'all' (default) or the number of the wt.% sample you're interested in. (I.e., plots(4) would return the plot for the 4 wt.% data). You will find the call to 'plot()' at the end of the python file. 
This is really just to prevent a bunch of plots printing every time if its not needed.

We noticed that the 'double' peaks somewhat intensified with increased wt.% and did not show up at all in the 2 wt. % sample. The shape of the double peaks, however, was not consistent throughout the runs.

Jack

*For future contact please use <b>jdiab@ucla.edu</b>*

File: Second_Blank_Complete.csv
Second Blank for NH3-H2O Specific Heat - Large HF,,,,
Creation Date : 7/8/2022 3:02:26 PM,,,,
User : admin,,,,
,,,,
HeatFlow :,,,,
 Initial Mass : 0 mg,,,,
 Molar Mass : N/A,,,,
,,,,
Index,Time(s),Furnace Temperature(K),Sample Temperature(K),HeatFlow(mW)
1,0,299.096,299.098,-1.023605
59,672.8,299.022,299.096,-0.416301
117,1345.6,298.622,299.045,-0.349621
175,2018.4,297.206,298.8,-0.342329
233,2691.2,293.723,298.012,-0.3371
291,3364,288.845,296.346,-0.136335
349,4036.8,283.612,293.831,0.218215
407,4709.6,278.49,290.693,0.452237
465,5382.4,273.658,287.1,0.781502
523,6055.2,269.117,283.258,0.970383
581,6728,264.831,279.3,1.156446
639,7400.8,260.756,275.317,1.416152
697,8073.6,256.831,271.358,1.754612
755,8746.4,253.046,267.451,1.715969
813,9419.2,249.388,263.616,1.822822
871,10092,245.829,259.861,1.777808
929,10764.8,242.375,256.19,2.352362
987,11437.6,239.011,252.603,2.106861
1045,12110.4,235.739,249.103,2.479111
1103,12783.2,232.56,245.688,2.551695
1161,13456,229.484,242.361,2.033749
1219,14128.8,226.507,239.122,2.391257
1277,14801.6,223.62,235.973,1.925228
1335,15474.4,220.786,232.907,2.046441
1393,16147.2,218.016,229.918,2.031088
1451,16820,215.342,227.005,2.455849
1509,17492.8,212.728,224.168,0.945725
1567,18165.6,210.188,221.402,1.515406
1625,18838.4,207.708,218.708,1.764426
1683,19511.2,205.266,216.078,1.447263
1741,20184,202.904,213.513,1.828457
1799,20856.8,200.587,211.006,2.101357
1857,21529.6,198.337,208.56,2.003859
1915,22202.4,196.151,206.174,2.170875
1973,22875.2,194.01,203.847,1.653357
2031,23548,191.919,201.574,1.556164
2089,24220.8,189.897,199.357,1.63976
2147,24893.6,187.942,197.196,1.838201
2205,25566.4,186.014,195.092,1.450545
2263,26239.2,184.113,193.034,1.640883
2321,26912,182.277,191.024,1.564621
2379,27584.8,180.481,189.061,0.554147
2437,28257.6,178.746,187.147,1.148688
2495,28930.4,177.038,185.277,0.172987
2553,29603.2,175.387,183.455,0.456616
2611,30276,173.789,181.677,-0.560755
2669,30948.8,172.232,179.946,0.001962
2727,31621.6,170.683,178.257,-0.451425
2785,32294.4,169.17,176.603,-0.079391
2843,32967.2,167.681,174.987,-0.613982
2901,33640,166.239,173.404,-0.240501
2959,34312.8,164.837,171.859,-0.467385
3017,34985.6,163.455,170.348,-0.246872
3075,35658.4,162.108,168.87,-0.200613
3133,36331.2,160.7,167.416,-0.397333
3191,37004,159.29,165.974,-0.134498
3249,37676.8,157.912,164.546,-0.024699
3307,38349.6,156.565,163.133,-0.2823
3365,39022.4,155.225,161.737,0.124683
3423,39695.2,153.961,160.364,0.351538
3481,40368,152.741,159.017,0.277497
3539,41040.8,151.55,157.703,0.235126
3597,41713.6,150.399,156.419,0.453533
3655,42386.4,149.31,155.17,0.177465
3713,43059.2,148.265,153.959,0.257859
3771,43732,147.194,152.781,0.417489
3829,44404.8,146.132,151.625,0.290129
3887,45077.6,145.141,150.495,0.18372
3945,45750.4,144.17,149.398,-0.034763
4003,46423.2,143.194,148.325,0.22649
4061,47096,142.213,147.272,0.333231
4119,47768.8,141.259,146.236,0.375954
4177,48441.6,140.385,145.225,0.597661
4235,49114.4,139.547,144.245,0.155449
4293,49787.2,138.722,143.297,0.39186
4351,50460,137.87,142.37,0.153855
4409,51132.8,137.0194,141.456,0.330421
4467,51805.6,136.228,140.562,0.151937
4525,52478.4,135.452,139.691,0.403035
4583,53151.2,134.673,138.839,0.246852
4641,53824,133.82,137.993,0.13442
4699,54496.8,133.069,137.155,0.098842
4757,55169.6,132.356,136.341,0.117972
4815,55842.4,131.58,135.538,0.025919
4873,56515.2,130.88,134.748,0.237208
4931,57188,130.222,133.981,0.192334
4989,57860.8,129.538,133.233,0.070451
5047,58533.6,128.909,132.5,-0.080157
5105,59206.4,128.323,131.794,0.023495
5163,59879.2,127.738,131.112,-0.019791
5221,60552,127.166,130.449,-0.078652
5279,61224.8,126.612,129.805,-0.00601
5337,61897.6,126.052,129.178,-0.018095
5395,62570.4,125.399,128.556,-0.141442
5453,63243.2,124.693,127.921,-0.049166
5511,63916,124.1,127.284,-0.03244
5569,64588.8,123.522,126.656,-0.172278
5627,65261.6,123.036,126.047,-0.262026
5685,65934.4,122.582,125.467,-0.272206
5743,66607.2,122.116,124.908,-0.182001
5801,67280,121.693,124.372,-0.331906
5859,67952.8,121.282,123.859,-0.282852
5917,68625.6,120.887,123.365,-0.26271
5975,69298.4,120.437,122.887,-0.313636
6033,69971.2,119.941,122.408,-0.276587
6091,70644,119.44,121.928,-0.274853
6149,71316.8,118.916,121.437,-0.287218
6207,71989.6,118.474,120.949,-0.32302
6265,72662.4,117.983,120.466,-0.33618
6323,73335.2,117.507,119.982,-0.320119
6381,74008,117.119,119.507,-0.40176
6439,74680.8,116.799,119.057,-0.360904
6497,75353.6,116.493,118.634,-0.286369
6555,76026.4,116.062,118.22,-0.295674
6613,76699.2,115.635,117.801,-0.272948
6671,77372,115.315,117.392,-0.324779
6729,78044.8,115.045,117.006,-0.359668
6787,78717.6,114.778,116.642,-0.301206
6845,79390.4,114.485,116.293,-0.313821
6903,80063.2,114.264,115.962,-0.316918
6961,80736,114.039,115.653,-0.315799
7019,81408.8,113.811,115.357,-0.263153
7077,82081.6,113.496,115.069,-0.24628
7135,82754.4,113.171,114.77,-0.242884
7193,83427.2,112.875,114.472,-0.250016
7251,84100,112.574,114.17,-0.237866
7309,84772.8,112.352,113.879,-0.255594
7367,85445.6,112.212,113.608,-0.303056
7425,86118.4,112.041,113.361,-0.355497
7483,86791.2,111.851,113.124,-0.369779
7541,87464,111.726,112.902,-0.374627
7599,88136.8,111.613,112.701,-0.387062
7657,88809.6,111.51,112.516,-0.40437
7715,89482.4,111.404,112.347,-0.399356
7773,90155.2,111.3,112.19,-0.414501
7831,90828,111.183,112.041,-0.421379
7889,91500.8,111.076,111.899,-0.430707
7947,92173.6,110.988,111.767,-0.430812
8005,92846.4,110.8953,111.641,-0.436428
8063,93519.2,110.821,111.524,-0.454023
8121,94192,110.741,111.414,-0.456848
8179,94864.8,111.643,111.33,-0.586809
8237,95537.6,115.17,111.725,-1.170266
8295,96210.4,117.97,112.616,-1.549488
8353,96883.2,120.784,113.868,-1.846764
8411,97556,123.595,115.418,-2.085498
8469,98228.8,126.404,117.205,-2.281341
8527,98901.6,129.212,119.186,-2.427905
8585,99574.4,132.018,121.322,-2.53911
8643,100247.2,134.824,123.584,-2.625478
8701,100920,137.625,125.946,-2.679738
8759,101592.8,140.433,128.39,-2.72529
8817,102265.6,143.234,130.901,-2.750272
8875,102938.4,146.041,133.466,-2.750708
8933,103611.2,148.844,136.076,-2.7468
8991,104284,151.649,138.722,-2.723024
9049,104956.8,154.453,141.397,-2.69083
9107,105629.6,157.257,144.1,-2.661214
9165,106302.4,160.061,146.824,-2.623942
9223,106975.2,162.863,149.563,-2.565802
9281,107648,165.669,152.317,-2.517774
9339,108320.8,168.47,155.082,-2.457618
9397,108993.6,171.276,157.856,-2.39623
9455,109666.4,174.0773,160.637,-2.337861
9513,110339.2,176.882,163.426,-2.291888
9571,111012,179.684,166.219,-2.231972
9629,111684.8,182.489,169.018,-2.173056
9687,112357.6,185.291,171.824,-2.11663
9745,113030.4,188.095,174.64,-2.067915
9803,113703.2,190.901,177.461,-1.997426
9861,114376,193.704,180.2908,-1.936247
9919,115048.8,196.506,183.125,-1.85909
9977,115721.6,199.31,185.965,-1.806956
10035,116394.4,202.113,188.806,-1.716699
10093,117067.2,204.917,191.65,-1.645313
10151,117740,207.721,194.498,-1.580415
10209,118412.8,210.524,197.348,-1.527376
10267,119085.6,213.327,200.198,-1.45847
10325,119758.4,216.131,203.053,-1.428428
10383,120431.2,218.934,205.908,-1.280053
10441,121104,221.738,208.764,-1.245052
10499,121776.8,224.539,211.621,-1.147851
10557,122449.6,227.345,214.478,-1.107776
10615,123122.4,230.149,217.336,-1.087981
10673,123795.2,232.95,220.195,-0.973974
10731,124468,235.754,223.053,-0.942118
10789,125140.8,238.558,225.912,-0.862269
10847,125813.6,241.362,228.77,-0.817091
10905,126486.4,244.163,231.629,-0.778068
10963,127159.2,246.968,234.486,-0.713803
11021,127832,249.77,237.346,-0.558206
11079,128504.8,252.569,240.203,-0.585678
11137,129177.6,255.377,243.058,-0.586247
11195,129850.4,258.178,245.913,-0.49841
11253,130523.2,260.984,248.767,-0.478837
11311,131196,263.788,251.619,-0.404954
11369,131868.8,266.592,254.474,-0.387771
11427,132541.6,269.398,257.33,-0.336444
11485,133214.4,272.203,260.187,-0.271045
11543,133887.2,275,263.044,-0.225069
11601,134560,277.804,265.899,-0.211631
11659,135232.8,280.609,268.753,-0.189265
11717,135905.6,283.409,271.606,-0.130989
11775,136578.4,286.215,274.457,-0.081115
11833,137251.2,289.019,277.308,-0.039881
11891,137924,291.819,280.159,0.008228
11949,138596.8,294.627,283.008,0.061583
12007,139269.6,297.424,285.855,0.153532
12065,139942.4,299.3,288.667,0.317529
12123,140615.2,299.194,290.964,0.186374
12181,141288,299.176,292.706,0.257299
12239,141960.8,299.174,294.026,0.363962
12297,142633.6,299.168,295.028,0.445188
12355,143306.4,299.161,295.799,0.564048
12413,143979.2,299.151,296.384,0.610477
12471,144652,299.151,296.825,0.657464
12529,145324.8,299.144,297.157,0.70277
12587,145997.6,299.14,297.401,0.721664
12645,146670.4,299.151,297.58,0.742313
12703,147343.2,299.149,297.714,0.753203
12761,148016,299.144,297.81,0.754506
12819,148688.8,299.142,297.876,0.75995
12877,149361.6,299.163,297.931,0.757849
12935,150034.4,299.157,297.978,0.767941
12993,150707.2,299.139,298.01,0.785596
13051,151380,299.14,298.028,0.770477
13109,152052.8,299.148,298.04,0.782827
13167,152725.6,299.151,298.047,0.785396
13225,153398.4,299.146,298.049,0.786767
13283,154071.2,299.141,298.048,0.774925
13341,154744,299.139,298.046,0.793292
13399,155416.8,299.147,298.04,0.776476
13457,156089.6,299.148,298.031,0.761722
13515,156762.4,299.137,298.021,0.734439
13573,157435.2,299.137,298.009,0.761052
13631,158108,299.164,297.998,0.780799
13689,158780.8,299.127,297.993,0.772736
13747,159453.6,299.139,297.977,0.749232
13805,160126.4,299.142,297.953,0.738779
13863,160799.2,299.159,297.943,0.727801
13921,161472,299.129,297.922,0.707046
13979,162144.8,299.134,297.901,0.696932
14037,162817.6,299.16,297.883,0.691623
14095,163490.4,299.139,297.865,0.716183
14153,164163.2,299.151,297.853,0.728552
14211,164836,299.156,297.848,0.70023
14269,165508.8,299.157,297.844,0.711735
14327,166181.6,299.151,297.848,0.738684
14385,166854.4,299.171,297.855,0.745717
14443,167527.2,299.163,297.869,0.755664
14501,168200,299.165,297.888,0.728012
14559,168872.8,299.171,297.912,0.777603
14617,169545.6,299.161,297.943,0.770885
14675,170218.4,299.172,297.971,0.791805
14733,170891.2,299.163,298.005,0.804308
14791,171564,299.159,298.03,0.815959
14849,172236.8,299.161,298.056,0.823319
14897,172793.6,299.183,298.081,0.814374