Folder: NH3_Calorimetry/z_unorganized_archive/i_data/water_tests/archive (part 2)

File: 2015_run1.csv
H2O_20150417,,,,
Creation Date : 3/2/2023 1:21:54 PM,,,,
User : admin,,,,
,,,,
HeatFlow :,,,,
 Initial Mass : 340 mg,,,,
 Molar Mass : N/A,,,,
,,,,
Index,Time(s),Furnace Temperature(K),Sample Temperature(K),HeatFlow(mW)
1,0,293.121,291.555,60.39059
59,916.4,269.222,287.44,16.3863
117,1832.8,255.882,279.504,11.3268
175,2749.2,245.231,270.524,13.1211
233,3665.6,236.024,261.454,14.3131
291,4582,227.402,252.607,16.4945
349,5498.4,219.181,244.035,6.910608
407,6414.8,211.281,235.775,6.572424
465,7331.2,203.817,227.821,6.720539
523,8247.6,196.75,220.182,8.197187
581,9164,190.159,212.89,3.826921
639,10080.4,184.021,205.962,3.557106
697,10996.8,178.286,199.402,4.490239
755,11913.2,172.819,193.166,4.353864
813,12829.6,167.814,187.26,5.294607
871,13746,162.86,181.67,5.853329
929,14662.4,158.344,176.349,4.669403
987,15578.8,154.004,171.292,5.436671
1045,16495.2,149.985,166.519,6.217227
1103,17411.6,146.356,162,5.627067
1161,18328,142.806,157.745,5.313599
1219,19244.4,139.631,153.748,5.641624
1277,20160.8,136.621,149.973,5.267648
1335,21077.2,133.948,146.452,4.47384
1393,21993.6,131.517,143.187,4.532707
1451,22910,129.304,140.142,4.447453
1509,23826.4,127.432,137.351,3.988363
1567,24742.8,125.789,134.822,3.468576
1625,25659.2,123.819,132.463,3.200752
1683,26575.6,122.254,130.252,2.682626
1741,27492,120.492,128.186,2.806072
1799,28408.4,118.93,126.195,2.635296
1857,29324.8,117.645,124.355,2.377643
1915,30241.2,116.241,122.642,2.130547
1973,31157.6,115.006,121.003,1.78726
2031,32074,113.867,119.489,1.735711
2089,32990.4,112.815,118.071,1.50028
2147,33906.8,111.711,116.735,1.504276
2205,34823.2,110.6388,115.448,1.377087
2263,35739.6,109.426,114.205,1.334382
2321,36656,108.334,112.985,1.294051
2379,37572.4,107.16,111.77,1.376927
2437,38488.8,106.138,110.595,1.296911
2495,39405.2,105.218,109.466,1.226381
2553,40321.6,104.333,108.388,0.969625
2611,41238,103.287,107.332,1.116282
2669,42154.4,102.297,106.297,0.994425
2727,43070.8,101.331,105.257,1.037304
2785,43987.2,100.465,104.254,0.96736
2843,44903.6,99.7459,103.302,0.900099
2901,45820,99.0341,102.41,0.841381
2959,46736.4,98.1846,101.532,0.83961
3017,47652.8,97.3135,100.668,0.799673
3075,48569.2,96.5505,99.8088,0.728205
3133,49485.6,95.6312,98.9487,0.762089
3191,50402,94.8152,98.09783,0.777942
3249,51318.4,94.0331,97.245,0.752773
3307,52234.8,93.4121,96.4367,0.613726
3365,53151.2,92.7542,95.66297,0.635297
3423,54067.6,91.9901,94.90914,0.612383
3481,54984,91.3724,94.1667,0.593113
3539,55900.4,90.7837,93.4538,0.535716
3597,56816.8,90.1704,92.774,0.488069
3655,57733.2,89.6675,92.121,0.461844
3713,58649.6,89.1089,91.49555,0.480487
3771,59566,88.61962,90.8998,0.437828
3829,60482.4,88.1702,90.329,0.427262
3887,61398.8,87.6917,89.7866,0.412582
3945,62315.2,87.3289,89.2746,0.440152
4003,63231.6,86.9745,88.7956,0.431807
4061,64148,86.6113,88.3529,0.417793
4119,65064.4,86.2968,87.9298,0.383629
4177,65980.8,85.9603,87.532,0.363131
4235,66897.2,85.6851,87.15975,0.34117
4293,67813.6,85.42066,86.8107,0.33219
4351,68730,85.0732,86.4723,0.33512
4409,69646.4,84.8212,86.1464,0.321477
4467,70562.8,84.5315,85.8312,0.327964
4525,71479.2,84.2985,85.5328,0.316869
4583,72395.6,84.0646,85.2463,0.308965
4641,73312,83.8538,84.9804,0.302656
4699,74228.4,83.678,84.7258,0.300719
4757,75144.8,83.5524,84.502,0.280099
4815,76061.2,83.3809,84.2987,0.26254
4873,76977.6,83.2013,84.098,0.265954
4931,77894,83.1027,83.91358,0.258403
4989,78810.4,82.9342,83.74375,0.24102
5047,79726.8,82.8317,83.5804,0.236997
5105,80643.2,82.7528,83.4322,0.228261
5163,81559.6,84.72045,83.5444,-0.080013
5221,82476,86.2472,84.0572,-0.299903
5279,83392.4,87.776,84.823,-0.462528
5337,84308.8,89.3059,85.7784,-0.575429
5395,85225.2,90.838,86.8695,-0.660639
5453,86141.6,92.3649,88.0637,-0.735267
5511,87058,93.9018,89.3288,-0.788171
5569,87974.4,95.4266,90.647,-0.832068
5627,88890.8,96.95928,92.00643,-0.85143
5685,89807.2,98.4862,93.3917,-0.893252
5743,90723.6,100.018,94.8007,-0.917814
5801,91640,101.545,96.2259,-0.940293
5859,92556.4,103.057,97.6637,-0.95981
5917,93472.8,104.606,99.1129,-0.965941
5975,94389.2,106.129,100.572,-0.996223
6033,95305.6,107.648,102.038,-1.009299
6091,96222,109.18,103.513,-1.019266
6149,97138.4,110.698,104.992,-1.039585
6207,98054.8,112.239,106.47,-1.034487
6265,98971.2,113.765,107.957,-1.053248
6323,99887.6,115.277,109.445,-1.061368
6381,100804,116.831,110.939,-1.067197
6439,101720.4,118.344,112.434,-1.075805
6497,102636.8,119.876,113.937,-1.08903
6555,103553.2,121.399,115.447,-1.09849
6613,104469.6,122.937,116.952,-1.095017
6671,105386,124.438,118.462,-1.102589
6729,106302.4,125.998,119.973,-1.111233
6787,107218.8,127.515,121.496,-1.123968
6845,108135.2,129.048,123.024,-1.132524
6903,109051.6,130.569,124.56,-1.135436
6961,109968,132.105,126.094,-1.139368
7019,110884.4,133.615,127.625,-1.133376
7077,111800.8,135.149,129.156,-1.137542
7135,112717.2,136.672,130.687,-1.137358
7193,113633.6,138.188,132.214,-1.142453
7251,114550,139.739,133.739,-1.138643
7309,115466.4,141.255,135.261,-1.129303
7367,116382.8,142.778,136.786,-1.128419
7425,117299.2,144.307,138.309,-1.126557
7483,118215.6,145.839,139.834,-1.122797
7541,119132,147.354,141.357,-1.116008
7599,120048.4,148.888,142.8823,-1.094663
7657,120964.8,150.406,144.406,-1.087718
7715,121881.2,151.941,145.931,-1.081074
7773,122797.6,153.484,147.453,-1.059961
7831,123714,155,148.982,-1.027665
7889,124630.4,156.523,150.511,-1.020312
7947,125546.8,158.048,152.041,-0.993992
8005,126463.2,159.59,153.562,-0.958319
8063,127379.6,161.113,155.092,-0.929496
8121,128296,162.613,156.609,-0.911925
8179,129212.4,164.134,158.122,-0.899284
8237,130128.8,165.68,159.629,-0.864681
8295,131045.2,167.205,161.142,-0.826195
8353,131961.6,168.745,162.638,-0.835667
8411,132878,170.253,164.14,-0.802933
8469,133794.4,171.779,165.641,-0.781993
8527,134710.8,173.322,167.147,-0.732811
8585,135627.2,174.861,168.652,-0.695451
8643,136543.6,176.381,170.16,-0.709153
8701,137460,177.906,171.681,-0.599002
8759,138376.4,179.432,173.202,-0.633679
8817,139292.8,180.944,174.723,-0.615361
8875,140209.2,182.484,176.244,-0.622332
8933,141125.6,183.993,177.766,-0.605773
8991,142042,185.549,179.278,-0.521608
9049,142958.4,187.067,180.797,-0.535337
9107,143874.8,188.595,182.323,-0.505878
9165,144791.2,190.128,183.847,-0.535551
9223,145707.6,191.656,185.368,-0.497133
9281,146624,193.173,186.894,-0.43349
9339,147540.4,194.709,188.424,-0.325698
9397,148456.8,196.251,189.953,-0.421485
9455,149373.2,197.775,191.487,-0.373317
9513,150289.6,199.271,193.011,-0.353174
9571,151206,200.818,194.543,-0.389095
9629,152122.4,202.354,196.071,-0.383139
9687,153038.8,203.881,197.601,-0.352415
9745,153955.2,205.398,199.135,-0.353516
9803,154871.6,206.93,200.666,-0.303677
9861,155788,208.436,202.198,-0.318993
9919,156704.4,209.992,203.728,-0.322507
9977,157620.8,211.517,205.257,-0.280351
10035,158537.2,213.027,206.791,-0.361346
10093,159453.6,214.565,208.317,-0.396237
10151,160370,216.083,209.848,-0.410803
10209,161286.4,217.63,211.383,-0.32866
10267,162202.8,219.159,212.919,-0.328907
10325,163119.2,220.676,214.447,-0.333573
10383,164035.6,222.195,215.98,-0.313861
10441,164952,223.74,217.51,-0.42756
10499,165868.4,225.271,219.046,-0.385963
10557,166784.8,226.781,220.58,-0.396696
10615,167701.2,228.311,222.113,-0.477968
10673,168617.6,229.847,223.651,-0.34098
10731,169534,231.353,225.187,-0.508443
10789,170450.4,232.905,226.714,-0.608987
10847,171366.8,234.42,228.249,-0.582891
10905,172283.2,235.947,229.788,-0.594485
10963,173199.6,237.478,231.328,-0.628204
11021,174116,239.012,232.867,-0.650285
11079,175032.4,240.534,234.407,-0.624927
11137,175948.8,242.057,235.948,-0.669568
11195,176865.2,243.588,237.49,-0.676388
11253,177781.6,245.117,239.0353,-0.719663
11311,178698,246.649,240.577,-0.688935
11369,179614.4,248.178,242.125,-0.735049
11427,180530.8,249.703,243.676,-0.735199
11485,181447.2,251.2337,245.231,-0.751205
11543,182363.6,252.757,246.785,-0.727982
11601,183280,254.282,248.336,-0.738816
11659,184196.4,255.808,249.889,-0.743336
11717,185112.8,257.352,251.444,-0.689169
11775,186029.2,258.87,253.003,-0.693533
11833,186945.6,260.378,254.569,-0.701952
11891,187862,261.936,256.117,-0.718236
11949,188778.4,263.469,257.691,-0.727995
12007,189694.8,264.9931,259.279,-0.763482
12065,190611.2,266.506,260.871,-0.806225
12123,191527.6,268.025,262.451,-0.819239
12181,192444,269.53,264.013,-0.859751
12239,193360.4,271.089,265.554,-0.84358
12297,194276.8,272.621,267.105,-0.849415
12355,195193.2,274.149,268.666,-0.858894
12413,196109.6,275.671,270.231,-0.88793
12471,197026,277.187,271.791,-0.973955
12529,197942.4,278.71,273.336,-2.208587
12587,198858.8,280.238,274.867,-61.601
12645,199775.2,281.77,276.398,-10.9755
12703,200691.6,283.296,277.939,-2.120372
12761,201608,284.825,279.467,-1.901184
12819,202524.4,286.35,281.002,-1.888574
12877,203440.8,287.864,282.531,-1.898334
12935,204357.2,289.404,284.053,-1.883692
12993,205273.6,290.926,285.581,-1.88515
13051,206190,292.456,287.108,-1.87729
13109,207106.4,293.185,288.577,-1.740478
13167,208022.8,293.153,289.65,-1.255496
13225,208939.2,293.15,290.388,-0.832846
13283,209855.6,293.147,290.896,-0.522803
13341,210772,293.145,291.242,-0.290032
13399,211688.4,293.138,291.472,-0.145793
13457,212604.8,293.142,291.622,-0.040975
13515,213521.2,293.129,291.715,0.023511
13573,214437.6,293.146,291.769,0.096976
13631,215354,293.137,291.805,0.109046
13689,216270.4,293.131,291.825,0.130042
13747,217186.8,293.136,291.829,0.161398
13805,218103.2,293.15,291.823,0.077723
13863,219019.6,293.134,291.824,0.078264
13921,219936,293.136,291.813,0.052666
13979,220852.4,293.159,291.804,-0.230858
14037,221768.8,293.157,291.802,-0.281562
14095,222685.2,293.148,291.792,-0.227999
14153,223601.6,293.144,291.775,-0.343819
14211,224518,293.145,291.76,-0.357984
14269,225434.4,293.144,291.746,-0.351937
14327,226350.8,293.144,291.737,-0.392835
14385,227267.2,293.138,291.727,-0.3884
14443,228183.6,293.142,291.717,-0.391237
14501,229100,293.154,291.71,-0.377259
14559,230016.4,293.155,291.709,-0.385453
14617,230932.8,293.14,291.709,-0.381267
14675,231849.2,293.155,291.701,-0.3621
14733,232765.6,293.154,291.696,-0.360041
14791,233682,293.137,291.696,-0.376942
14849,234598.4,293.157,291.685,-0.356705
14907,235514.8,293.153,291.679,-0.360704
14965,236431.2,293.148,291.675,-0.362318
14975,236589.2,293.152,291.674,-0.356819