Folder: NH3_Calorimetry/z_unorganized_archive/i_data/water_tests/archive

Note: z_unorganized_archive/README.md
# <u>Calorimetry Analysis</u>
*Repository for analysis code for the calorimetry data of NH3-H2O systems*

Folders:
archive_jack			contributions by Jack DIAB
i_data					.csv files of outputs from the calorimeter (Calisto Program). The first 8 rows are metadata.
i_data_processed		various files resulting from outputs of processing scripts, and data files from literature.
o_heatFlow				outputs and plots pertaining to heat flow
o_specificHeat			outputs and plots pertaining to specific heat
o_unclassifiedFigures	figures that are recently plotted and have no determined classification yet
z_meetings				files used in meetings. They serve as periodic summaries of work done
z_scripts				scripts used.

Note: this is still a work in progress. Scripts, files and folder organization are not final and may not be well documented and accessible. Do contact Bing Hong CHUA at bing.hong.chua@jpl.nasa.gov for assistance.

File: 2014_run1.csv
H2O_run_03282014,,,,,
Creation Date : 3/2/2023 1:36:16 PM,,,,,
User : admin,,,,,
,,,,,
HeatFlow :,,,,,
 Initial Mass : 6000 mg,,,,,
 Molar Mass : 18 g/mol,,,,,
,,,,,
Baseline :,,,,,
 Initial Mass : 6000 mg,,,,,
 Molar Mass : 18 g/mol,,,,,
,,,,,
Index,Time(s),Furnace Temperature(K),Sample Temperature(K),HeatFlow(mW),Baseline(mW)
1,0,295.224,295.994,188.157,188.157
72,1121.8,288.558,294.651,31.7587,31.7587
143,2243.6,277.385,290.278,98.2186,98.2186
214,3365.4,266.161,283.38,157.55,157.55
285,4487.2,256.089,275.169,190.286,190.286
356,5609,247.555,266.74,200.764,200.764
427,6730.8,239.219,258.469,200.088,200.088
498,7852.6,231.178,250.534,393.864,393.864
569,8974.4,223.789,242.609,94.0703,94.0703
640,10096.2,215.723,234.844,85.4913,85.4913
711,11218,208.149,227.181,82.6313,82.6313
782,12339.8,200.489,219.663,79.4562,79.4562
853,13461.6,193.423,212.264,75.31433,75.31433
924,14583.4,186.616,205.177,70.5723,70.5723
995,15705.2,179.351,198.188,67.8454,67.8454
1066,16827,171.568,191.156,67.316,67.316
1137,17948.8,164.894,184.133,64.1595,64.1595
1208,19070.6,158.624,177.403,60.5325,60.5325
1279,20192.4,152.114,170.834,56.1732,56.1732
1350,21314.2,145.835,164.434,53.4471,53.4471
1421,22436,140.221,158.245,49.7491,49.7491
1492,23557.8,135.038,152.334,45.6683,45.6683
1563,24679.6,130.348,146.757,42.3206,42.3206
1634,25801.4,125.753,141.485,39.4095,39.4095
1705,26923.2,121.966,136.549,35.3314,35.3314
1776,28045,118.764,132.038,31.19031,31.19031
1847,29166.8,115.214,127.874,28.5853,28.5853
1918,30288.6,112.154,123.962,26.1175,26.1175
1989,31410.4,109.205,120.284,23.6712,23.6712
2060,32532.2,106.571,116.865,21.7029,21.7029
2131,33654,104.451,113.735,19.364,19.364
2202,34775.8,102.109,110.861,17.4194,17.4194
2273,35897.6,100.117,108.178,15.8299,15.8299
2344,37019.4,98.1558,105.673,14.62917,14.62917
2415,38141.2,96.5986,103.387,12.8378,12.8378
2486,39263,95.23992,101.319,11.207,11.207
2557,40384.8,93.7987,99.4309,10.151,10.151
2628,41506.6,92.5484,97.6997,8.973586,8.973586
2699,42628.4,91.4856,96.1229,8.005916,8.005916
2770,43750.2,90.3981,94.6834,7.311097,7.311097
2841,44872,89.4639,93.3683,6.406189,6.406189
2912,45993.8,88.5741,92.1579,5.776219,5.776219
2983,47115.6,87.81745,91.0612,5.04126,5.04126
3054,48237.4,87.1951,90.0824,4.256684,4.256684
3125,49359.2,86.5932,89.2036,3.764274,3.764274
3196,50481,86.0196,88.4169,3.248103,3.248103
3267,51602.8,85.508,87.6938,2.917386,2.917386
3338,52724.6,84.986,87.0304,2.577307,2.577307
3409,53846.4,84.5933,86.4275,2.239315,2.239315
3480,54968.2,84.2022,85.8915,1.907755,1.907755
3551,56090,83.8332,85.3944,1.721988,1.721988
3622,57211.8,83.4971,84.943,1.4669,1.4669
3693,58333.6,83.2259,84.53356,1.24352,1.24352
3764,59455.4,82.9688,84.1662,1.039648,1.039648
3835,60577.2,82.7222,83.8367,0.840912,0.840912
3906,61699,82.516,83.5345,0.71024,0.71024
3977,62820.8,82.2955,83.2604,0.577364,0.577364
4048,63942.6,82.1128,83.0081,0.458637,0.458637
4119,65064.4,81.9667,82.77941,0.341161,0.341161
4190,66186.2,81.8578,82.5834,0.199169,0.199169
4261,67308,81.7884,82.4205,0.056153,0.056153
4332,68429.8,81.7176,82.2814,-0.061822,-0.061822
4403,69551.6,81.7235,82.1754,-0.226811,-0.226811
4474,70673.4,81.7346,82.1079,-0.371639,-0.371639
4545,71795.2,81.7531,82.0573,-0.457409,-0.457409
4616,72917,81.8279,82.0359,-0.59549,-0.59549
4687,74038.8,81.9574,82.0539,-0.777704,-0.777704
4758,75160.6,82.0649,82.1023,-0.914366,-0.914366
4829,76282.4,82.1323,82.1543,-0.887086,-0.887086
4900,77404.2,82.3555,82.2405,-1.102525,-1.102525
4971,78526,82.5102,82.3536,-1.198407,-1.198407
5042,79647.8,82.5991,82.473,-1.18849,-1.18849
5113,80769.6,82.9705,82.58988,-1.219179,-1.219179
5184,81891.4,85.2836,83.1241,-3.725771,-3.725771
5255,83013.2,87.1502,84.0838,-5.341264,-5.341264
5326,84135,89.0299,85.3149,-6.4851,-6.4851
5397,85256.8,90.9,86.7302,-7.30725,-7.30725
5468,86378.6,92.7805,88.275,-7.915345,-7.915345
5539,87500.4,94.6489,89.9156,-8.421343,-8.421343
5610,88622.2,96.5143,91.6148,-8.790099,-8.790099
5681,89744,98.3844,93.3509,-9.07996,-9.07996
5752,90865.8,100.251,95.1144,-9.315023,-9.315023
5823,91987.6,102.116,96.893,-9.51548,-9.51548
5894,93109.4,104,98.6841,-9.718242,-9.718242
5965,94231.2,105.846,100.488,-9.894389,-9.894389
6036,95353,107.719,102.292,-10.0776,-10.0776
6107,96474.8,109.598,104.106,-10.2671,-10.2671
6178,97596.6,111.465,105.923,-10.4295,-10.4295
6249,98718.4,113.347,107.743,-10.6178,-10.6178
6320,99840.2,115.195,109.573,-10.79517,-10.79517
6391,100962,117.069,111.399,-10.93479,-10.93479
6462,102083.8,118.942,113.231,-11.08044,-11.08044
6533,103205.6,120.809,115.061,-11.1618,-11.1618
6604,104327.4,122.64,116.888,-11.2528,-11.2528
6675,105449.2,124.549,118.698,-11.30036,-11.30036
6746,106571,126.383,120.512,-11.4053,-11.4053
6817,107692.8,128.278,122.32,-11.5031,-11.5031
6888,108814.6,130.177,124.138,-11.6551,-11.6551
6959,109936.4,131.999,125.959,-11.7673,-11.7673
7030,111058.2,133.882,127.776,-11.8748,-11.8748
7101,112180,135.785,129.592,-11.9879,-11.9879
7172,113301.8,137.658,131.419,-12.1224,-12.1224
7243,114423.6,139.527,133.257,-12.2866,-12.2866
7314,115545.4,141.383,135.0987,-12.4548,-12.4548
7385,116667.2,143.222,136.941,-12.5426,-12.5426
7456,117789,145.128,138.796,-12.7737,-12.7737
7527,118910.8,146.998,140.645,-12.8519,-12.8519
7598,120032.6,148.845,142.505,-13.0358,-13.0358
7669,121154.4,150.732,144.367,-13.2336,-13.2336
7740,122276.2,152.595,146.233,-13.4469,-13.4469
7811,123398,154.492,148.094,-13.6145,-13.6145
7882,124519.8,156.3077,149.957,-13.5409,-13.5409
7953,125641.6,158.21,151.827,-13.6849,-13.6849
8024,126763.4,160.094,153.694,-13.7618,-13.7618
8095,127885.2,161.926,155.563,-13.8696,-13.8696
8166,129007,163.816,157.434,-14.0084,-14.0084
8237,130128.8,165.706,159.301,-14.1122,-14.1122
8308,131250.6,167.569,161.175,-14.23704,-14.23704
8379,132372.4,169.425,163.048,-14.2806,-14.2806
8450,133494.2,171.283,164.913,-14.3865,-14.3865
8521,134616,173.189,166.7909,-14.5829,-14.5829
8592,135737.8,175.014,168.663,-14.6096,-14.6096
8663,136859.6,176.92,170.539,-14.7351,-14.7351
8734,137981.4,178.76,172.416,-14.8132,-14.8132
8805,139103.2,180.67,174.29,-14.8372,-14.8372
8876,140225,182.523,176.169,-14.9912,-14.9912
8947,141346.8,184.359,178.041,-15.1525,-15.1525
9018,142468.6,186.261,179.916,-15.3389,-15.3389
9089,143590.4,188.148,181.79,-15.4541,-15.4541
9160,144712.2,190.012,183.668,-15.64478,-15.64478
9231,145834,191.872,185.552,-15.7025,-15.7025
9302,146955.8,193.728,187.423,-15.7483,-15.7483
9373,148077.6,195.617,189.305,-15.9423,-15.9423
9444,149199.4,197.473,191.178,-15.9884,-15.9884
9515,150321.2,199.345,193.055,-16.1669,-16.1669
9586,151443,201.216,194.935,-16.2885,-16.2885
9657,152564.8,203.097,196.8216,-16.4497,-16.4497
9728,153686.6,204.956,198.714,-16.61845,-16.61845
9799,154808.4,206.823,200.596,-16.6758,-16.6758
9870,155930.2,208.705,202.467,-16.7731,-16.7731
9941,157052,210.572,204.348,-16.9707,-16.9707
10012,158173.8,212.446,206.234,-17.1574,-17.1574
10083,159295.6,214.298,208.127,-17.3486,-17.3486
10154,160417.4,216.183,210.015,-17.4543,-17.4543
10225,161539.2,218.046,211.903,-17.5386,-17.5386
10296,162661,219.924,213.792,-17.701,-17.701
10367,163782.8,221.789,215.699,-18.0331,-18.0331
10438,164904.6,223.645,217.603,-18.0887,-18.0887
10509,166026.4,225.529,219.498,-18.1771,-18.1771
10580,167148.2,227.395,221.383,-18.20446,-18.20446
10651,168270,229.271,223.269,-18.3469,-18.3469
10722,169391.8,231.125,225.17,-18.6723,-18.6723
10793,170513.6,233.003,227.057,-18.6547,-18.6547
10864,171635.4,234.865,228.935,-18.7179,-18.7179
10935,172757.2,236.732,230.808,-18.8011,-18.8011
11006,173879,238.613,232.685,-18.9804,-18.9804
11077,175000.8,240.473,234.569,-19.212,-19.212
11148,176122.6,242.359,236.44,-19.2958,-19.2958
11219,177244.4,244.244,238.327,-19.5647,-19.5647
11290,178366.2,246.092,240.221,-19.7397,-19.7397
11361,179488,247.95,242.125,-20.0834,-20.0834
11432,180609.8,249.845,244.034,-20.2574,-20.2574
11503,181731.6,251.673,245.935,-20.3555,-20.3555
11574,182853.4,253.542,247.815,-20.3052,-20.3052
11645,183975.2,255.421,249.683,-20.2879,-20.2879
11716,185097,257.312,251.566,-20.6819,-20.6819
11787,186218.8,259.186,253.458,-20.9172,-20.9172
11858,187340.6,261.049,255.348,-21.0542,-21.0542
11929,188462.4,262.899,257.219,-21.0433,-21.0433
12000,189584.2,264.777,259.069,-20.9831,-20.9831
12071,190706,266.648,260.918,-21.1914,-21.1914
12142,191827.8,268.514,262.767,-21.3725,-21.3725
12213,192949.6,270.378,264.618,-21.5784,-21.5784
12284,194071.4,272.271,266.479,-21.8816,-21.8816
12355,195193.2,274.118,268.35,-22.1676,-22.1676
12426,196315,275.996,270.21,-22.31644,-22.31644
12497,197436.8,277.872,272.078,-22.7749,-22.7749
12568,198558.6,279.744,273.948,-58.9601,-25.6227
12639,199680.4,281.626,275.788,-418.323,-29.3058
12710,200802.2,283.483,277.59,-685.402,-32.9125
12781,201924,285.367,279.399,-718.163,-36.5342
12852,203045.8,287.219,281.298,-127.082,-40.3337
12923,204167.6,289.084,283.229,-48.4103,-44.1995
12994,205289.4,290.951,285.147,-45.2352,-45.2352
13065,206411.2,292.805,287.038,-44.4925,-44.4925
13136,207533,293.167,288.686,-38.7906,-38.7906
13207,208654.8,293.151,289.754,-25.885,-25.885
13278,209776.6,293.166,290.431,-16.6112,-16.6112
13349,210898.4,293.161,290.868,-10.7624,-10.7624
13420,212020.2,293.153,291.147,-6.968993,-6.968993
13491,213142,293.138,291.332,-4.802339,-4.802339
13562,214263.8,293.165,291.445,-3.10106,-3.10106
13633,215385.6,293.159,291.519,-2.068938,-2.068938
13704,216507.4,293.155,291.569,-1.471367,-1.471367
13775,217629.2,293.154,291.6,-1.06997,-1.06997
13846,218751,293.157,291.624,-0.890957,-0.890957
13917,219872.8,293.159,291.637,-0.61314,-0.61314
13988,220994.6,293.142,291.646,-0.574262,-0.574262
14059,222116.4,293.162,291.645,-0.380769,-0.380769
14130,223238.2,293.152,291.646,-0.318747,-0.318747
14201,224360,293.14,291.652,-0.468529,-0.468529
14272,225481.8,293.146,291.646,-0.224246,-0.224246
14343,226603.6,293.145,291.646,-0.33706,-0.33706
14414,227725.4,293.156,291.652,-0.478549,-0.478549
14485,228847.2,293.158,291.65,-0.356062,-0.356062
14556,229969,293.157,291.651,-0.333775,-0.333775
14627,231090.8,293.149,291.648,-0.264153,-0.264153
14698,232212.6,293.148,291.646,-0.329803,-0.329803
14769,233334.4,293.165,291.646,-0.33706,-0.33706
14840,234456.2,293.16,291.653,-0.514655,-0.514655
14911,235578,293.153,291.657,-0.358132,-0.358132
14975,236589.2,293.145,291.656,-0.34794,-0.34794

File: 2015_blank.csv
Blank_run_20150414,,,,
Creation Date : 3/2/2023 1:23:45 PM,,,,
User : admin,,,,
,,,,
HeatFlow :,,,,
 Initial Mass : 0 mg,,,,
 Molar Mass : N/A,,,,
,,,,
Index,Time(s),Furnace Temperature(K),Sample Temperature(K),HeatFlow(mW)
1,0,298.116,298.094,0.112649
59,916.4,298.041,298.1,-0.053598
117,1832.8,296.749,297.959,-0.075411
175,2749.2,291.426,296.806,-0.355758
233,3665.6,283.444,293.851,-0.302162
291,4582,274.46,289.137,-0.093315
349,5498.4,265.503,283.083,0.1162
407,6414.8,257.297,276.333,0.114444
465,7331.2,249.293,269.246,0.394583
523,8247.6,241.148,262.005,1.501896
581,9164,230.952,254.256,1.757325
639,10080.4,220.998,245.928,0.041975
697,10996.8,211.9709,237.43,-0.150454
755,11913.2,204.136,229.115,-0.338159
813,12829.6,197.503,221.241,0.135274
871,13746,191.609,213.94,-0.10834
929,14662.4,185.91,207.159,0.803475
987,15578.8,180.751,200.804,0.575938
1045,16495.2,176.493,194.965,1.185383
1103,17411.6,172.555,189.656,1.330941
1161,18328,169.011,184.792,1.116013
1219,19244.4,165.748,180.353,1.885364
1277,20160.8,162.605,176.269,1.377353
1335,21077.2,159.721,172.473,1.780674
1393,21993.6,156.62,168.928,1.537585
1451,22910,153.472,165.47,1.609469
1509,23826.4,150.362,162.134,2.160593
1567,24742.8,147.715,158.919,2.281821
1625,25659.2,144.916,155.866,1.858287
1683,26575.6,142.276,152.878,1.586586
1741,27492,139.981,150.038,1.996455
1799,28408.4,137.783,147.367,1.783437
1857,29324.8,135.529,144.81,1.572728
1915,30241.2,133.317,142.347,1.577291
1973,31157.6,130.79,139.89,1.744034
2031,32074,128.31,137.45,1.924053
2089,32990.4,126.023,135.027,1.431758
2147,33906.8,123.59,132.612,1.681335
2205,34823.2,121.46,130.255,1.901154
2263,35739.6,119.494,127.957,1.722653
2321,36656,117.418,125.738,1.617273
2379,37572.4,115.459,123.581,1.798193
2437,38488.8,113.477,121.453,1.426098
2495,39405.2,111.551,119.381,1.611054
2553,40321.6,109.775,117.358,1.545339
2611,41238,107.525,115.354,1.578343
2669,42154.4,105.402,113.287,1.725225
2727,43070.8,103.722,111.271,1.788023
2785,43987.2,102.224,109.356,1.458737
2843,44903.6,100.771,107.531,1.297334
2901,45820,99.4723,105.82,1.33905
2959,46736.4,98.2879,104.218,1.157513
3017,47652.8,97.0871,102.698,1.272558
3075,48569.2,95.9213,101.271,1.064584
3133,49485.6,94.8817,99.9073,1.02093
3191,50402,93.7786,98.6136,0.921738
3249,51318.4,92.8968,97.3923,0.812367
3307,52234.8,91.99552,96.2418,0.823377
3365,53151.2,91.1912,95.1696,0.776814
3423,54067.6,90.4453,94.1592,0.622603
3481,54984,89.7325,93.2179,0.5803
3539,55900.4,89.1397,92.343,0.489582
3597,56816.8,88.5609,91.5373,0.441335
3655,57733.2,87.9278,90.7853,0.414702
3713,58649.6,87.3282,90.0574,0.397532
3771,59566,86.8878,89.381,0.386076
3829,60482.4,86.3875,88.7588,0.325924
3887,61398.8,85.93894,88.1661,0.314194
3945,62315.2,85.5574,87.6203,0.310384
4003,63231.6,85.2228,87.11878,0.295786
4061,64148,84.887,86.6579,0.345466
4119,65064.4,84.5927,86.236,0.317981
4177,65980.8,84.3137,85.844,0.293882
4235,66897.2,84.08335,85.4876,0.251579
4293,67813.6,83.7724,85.1536,0.248665
4351,68730,83.5299,84.8302,0.246843
4409,69646.4,83.2985,84.5317,0.252732
4467,70562.8,83.1024,84.2504,0.243253
4525,71479.2,82.9035,83.9934,0.228542
4583,72395.6,82.7533,83.7546,0.222176
4641,73312,82.622,83.5423,0.211389
4699,74228.4,82.4283,83.343,0.20962
4757,75144.8,82.2873,83.1491,0.20712
4815,76061.2,82.1116,82.9674,0.211037
4873,76977.6,81.9554,82.7857,0.204167
4931,77894,81.8464,82.6182,0.197743
4989,78810.4,81.7643,82.4688,0.197534
5047,79726.8,81.6596,82.3335,0.187288
5105,80643.2,83.1496,82.3344,0.040434
5163,81559.6,84.713,82.7744,-0.12535
5221,82476,86.2468,83.4891,-0.242321
5279,83392.4,87.78266,84.407,-0.32967
5337,84308.8,89.3065,85.4756,-0.37676
5395,85225.2,90.8462,86.65003,-0.423942
5453,86141.6,92.3698,87.9031,-0.468865
5511,87058,93.8912,89.2133,-0.495359
5569,87974.4,95.4299,90.5641,-0.519541
5627,88890.8,96.9581,91.947,-0.533414
5685,89807.2,98.4708,93.3497,-0.549793
5743,90723.6,100.02,94.7734,-0.559625
5801,91640,101.53,96.2086,-0.56337
5859,92556.4,103.067,97.65383,-0.579305
5917,93472.8,104.59,99.1066,-0.58688
5975,94389.2,106.127,100.568,-0.58717
6033,95305.6,107.641,102.033,-0.597877
6091,96222,109.183,103.501,-0.593133
6149,97138.4,110.699,104.979,-0.598463
6207,98054.8,112.242,106.457,-0.600463
6265,98971.2,113.744,107.938,-0.611175
6323,99887.6,115.307,109.425,-0.598047
6381,100804,116.816,110.913,-0.611652
6439,101720.4,118.348,112.41,-0.614455
6497,102636.8,119.878,113.903,-0.612979
6555,103553.2,121.395,115.407,-0.622094
6613,104469.6,122.937,116.905,-0.610898
6671,105386,124.431,118.409,-0.620358
6729,106302.4,125.998,119.912,-0.610525
6787,107218.8,127.512,121.4271,-0.617179
6845,108135.2,129.05,122.944,-0.619865
6903,109051.6,130.548,124.463,-0.619584
6961,109968,132.109,125.981,-0.614706
7019,110884.4,133.63,127.505,-0.611067
7077,111800.8,135.15,129.03,-0.610265
7135,112717.2,136.668,130.56,-0.613383
7193,113633.6,138.202,132.09,-0.610094
7251,114550,139.717,133.616,-0.608648
7309,115466.4,141.231,135.132,-0.599626
7367,116382.8,142.783,136.652,-0.585464
7425,117299.2,144.316,138.172,-0.579561
7483,118215.6,145.829,139.68,-0.574318
7541,119132,147.36,141.2,-0.566253
7599,120048.4,148.86,142.712,-0.561547
7657,120964.8,150.421,144.224,-0.545288
7715,121881.2,151.932,145.746,-0.534023
7773,122797.6,153.485,147.26,-0.507788
7831,123714,154.996,148.78,-0.486862
7889,124630.4,156.503,150.299,-0.463713
7947,125546.8,158.068,151.819,-0.433473
8005,126463.2,159.555,153.342,-0.422614
8063,127379.6,161.112,154.858,-0.37676
8121,128296,162.639,156.372,-0.38163
8179,129212.4,164.153,157.888,-0.350699
8237,130128.8,165.662,159.404,-0.298773
8295,131045.2,167.222,160.919,-0.26125
8353,131961.6,168.745,162.436,-0.236823
8411,132878,170.267,163.956,-0.201201
8469,133794.4,171.778,165.477,-0.152755
8527,134710.8,173.338,166.999,-0.125071
8585,135627.2,174.851,168.522,-0.064196
8643,136543.6,176.364,170.049,-0.075885
8701,137460,177.922,171.575,0.009719
8759,138376.4,179.432,173.099,0.045869
8817,139292.8,180.952,174.628,0.096704
8875,140209.2,182.507,176.159,0.140944
8933,141125.6,184.016,177.686,0.170498
8991,142042,185.544,179.219,0.247434
9049,142958.4,187.069,180.752,0.232306
9107,143874.8,188.608,182.281,0.202358
9165,144791.2,190.118,183.812,0.203562
9223,145707.6,191.658,185.347,0.343554
9281,146624,193.201,186.881,0.270635
9339,147540.4,194.715,188.421,0.353607
9397,148456.8,196.229,189.958,0.376442
9455,149373.2,197.775,191.492,0.355721
9513,150289.6,199.302,193.025,0.433772
9571,151206,200.834,194.565,0.390671
9629,152122.4,202.357,196.105,0.366084
9687,153038.8,203.866,197.639,0.342045
9745,153955.2,205.392,199.174,0.323691
9803,154871.6,206.932,200.708,0.359582
9861,155788,208.466,202.24,0.355998
9919,156704.4,209.983,203.771,0.361557
9977,157620.8,211.491,205.302,0.37475
10035,158537.2,213.032,206.831,0.35794
10093,159453.6,214.575,208.359,0.345197
10151,160370,216.101,209.889,0.388891
10209,161286.4,217.615,211.417,0.422916
10267,162202.8,219.145,212.951,0.429651
10325,163119.2,220.688,214.484,0.396269
10383,164035.6,222.206,216.013,0.359815
10441,164952,223.738,217.552,0.398316
10499,165868.4,225.264,219.083,0.375733
10557,166784.8,226.78,220.617,0.392204
10615,167701.2,228.306,222.15,0.333682
10673,168617.6,229.84,223.685,0.541479
10731,169534,231.374,225.217,0.348377
10789,170450.4,232.894,226.759,0.328503
10847,171366.8,234.419,228.295,0.301941
10905,172283.2,235.935,229.832,0.307109
10963,173199.6,237.485,231.363,0.313264
11021,174116,239.011,232.901,0.318739
11079,175032.4,240.532,234.439,0.270187
11137,175948.8,242.06,235.982,0.346353
11195,176865.2,243.59,237.526,0.250449
11253,177781.6,245.125,239.068,0.281156
11311,178698,246.647,240.619,0.290082
11369,179614.4,248.172,242.171,0.23918
11427,180530.8,249.692,243.716,0.189219
11485,181447.2,251.222,245.255,0.191825
11543,182363.6,252.751,246.791,0.198983
11601,183280,254.265,248.324,0.173336
11659,184196.4,255.813,249.857,0.200892
11717,185112.8,257.333,251.4,0.244274
11775,186029.2,258.872,252.939,0.252417
11833,186945.6,260.395,254.489,0.31306
11891,187862,261.9209,256.04,0.290928
11949,188778.4,263.438,257.589,0.270936
12007,189694.8,264.969,259.134,0.270774
12065,190611.2,266.51,260.682,0.244701
12123,191527.6,268.033,262.232,0.225213
12181,192444,269.564,263.777,0.208581
12239,193360.4,271.069,265.333,0.211157
12297,194276.8,272.602,266.88,0.206579
12355,195193.2,274.157,268.422,0.215584
12413,196109.6,275.674,269.99,0.240563
12471,197026,277.189,271.553,0.221081
12529,197942.4,278.719,273.112,0.226186
12587,198858.8,280.241,274.667,0.232225
12645,199775.2,281.739,276.2042,0.201751
12703,200691.6,283.285,277.717,0.218001
12761,201608,284.833,279.231,0.248823
12819,202524.4,286.362,280.754,0.266152
12877,203440.8,287.883,282.283,0.274337
12935,204357.2,289.412,283.815,0.284242
12993,205273.6,290.934,285.34,0.285615
13051,206190,292.474,286.869,0.309499
13109,207106.4,293.184,288.338,0.396739
13167,208022.8,293.165,289.399,0.361573
13225,208939.2,293.151,290.129,0.351824
13283,209855.6,293.141,290.628,0.332926
13341,210772,293.151,290.974,0.332329
13399,211688.4,293.142,291.213,0.329288
13457,212604.8,293.138,291.373,0.329117
13515,213521.2,293.138,291.478,0.326251
13573,214437.6,293.145,291.549,0.333311
13631,215354,293.142,291.599,0.335303
13689,216270.4,293.144,291.632,0.338262
13747,217186.8,293.157,291.651,0.339206
13805,218103.2,293.153,291.662,0.327022
13863,219019.6,293.144,291.668,0.324244
13921,219936,293.141,291.671,0.320391
13979,220852.4,293.143,291.676,0.330098
14037,221768.8,293.149,291.678,0.330293
14095,222685.2,293.156,291.682,0.33521
14153,223601.6,293.142,291.688,0.335507
14211,224518,293.143,291.69,0.336762
14269,225434.4,293.154,291.687,0.33868
14327,226350.8,293.153,291.684,0.329997
14385,227267.2,293.153,291.684,0.332359
14443,228183.6,293.14,291.684,0.326243
14501,229100,293.135,291.679,0.33164
14559,230016.4,293.15,291.674,0.326661
14617,230932.8,293.161,291.67,0.323651
14675,231849.2,293.153,291.668,0.327556
14733,232765.6,293.149,291.665,0.324977
14791,233682,293.143,291.665,0.326549
14849,234598.4,293.148,291.667,0.330199
14907,235514.8,293.149,291.666,0.331374
14965,236431.2,293.155,291.665,0.336045
14975,236589.2,293.155,291.667,0.335515