Folder: NH3_Calorimetry/z_unorganized_archive/i_data/0.10Kmin

Note: z_unorganized_archive/README.md
# <u>Calorimetry Analysis</u>
*Repository for analysis code for the calorimetry data of NH3-H2O systems*

Folders:
archive_jack			contributions by Jack DIAB
i_data					.csv files of outputs from the calorimeter (Calisto Program). The first 8 rows are metadata.
i_data_processed		various files resulting from outputs of processing scripts, and data files from literature.
o_heatFlow				outputs and plots pertaining to heat flow
o_specificHeat			outputs and plots pertaining to specific heat
o_unclassifiedFigures	figures that are recently plotted and have no determined classification yet
z_meetings				files used in meetings. They serve as periodic summaries of work done
z_scripts				scripts used.

Note: this is still a work in progress. Scripts, files and folder organization are not final and may not be well documented and accessible. Do contact Bing Hong CHUA at bing.hong.chua@jpl.nasa.gov for assistance.

File: Blank.csv
Blank_run2 for H2O-NH3  Specific Heat - Large HF,,,,
Creation Date : 8/15/2022 9:37:04 AM,,,,
User : admin,,,,
,,,,
HeatFlow :,,,,
 Initial Mass : 0 mg,,,,
 Molar Mass : 17 g/mol,,,,
,,,,
Index,Time(s),Furnace Temperature(K),Sample Temperature(K),HeatFlow(mW)
1,0,299.146,299.173,10.3121
59,980.2,298.391,299.078,-0.207811
117,1960.4,295.747,298.444,-0.371099
175,2940.6,290.163,296.614,-0.313504
233,3920.8,283.083,293.187,-0.015696
291,4901,276,288.546,0.218417
349,5881.2,269.351,283.169,0.466928
407,6861.4,263.164,277.495,0.853456
465,7841.6,257.39,271.778,1.193847
523,8821.8,251.888,266.145,1.538323
581,9802,246.648,260.649,1.447779
639,10782.2,241.649,255.33,1.790132
697,11762.4,236.842,250.193,2.119168
755,12742.6,232.213,245.237,1.934064
813,13722.8,227.741,240.451,2.650505
871,14703,223.47,235.837,2.595347
929,15683.2,219.349,231.39,2.509788
987,16663.4,215.377,227.102,2.505457
1045,17643.6,211.5395,222.965,2.206117
1103,18623.8,207.838,218.967,1.996631
1161,19604,204.272,215.113,1.489421
1219,20584.2,200.784,211.383,2.141237
1277,21564.4,197.379,207.76,1.817478
1335,22544.6,194.1789,204.255,1.617536
1393,23524.8,191.021,200.875,1.615981
1451,24505,187.944,197.581,1.436882
1509,25485.2,185.112,194.411,0.56571
1567,26465.4,182.386,191.374,0.948299
1625,27445.6,179.717,188.45,0.709917
1683,28425.8,177.136,185.626,0.553442
1741,29406,174.639,182.897,0.203702
1799,30386.2,172.233,180.258,0.466154
1857,31366.4,169.934,177.713,0.934452
1915,32346.6,167.705,175.257,0.427905
1973,33326.8,165.55,172.886,0.51858
2031,34307,163.47,170.595,0.482236
2089,35287.2,161.458,168.378,0.477929
2147,36267.4,159.51,166.236,0.313198
2205,37247.6,157.61,164.162,0.467694
2263,38227.8,155.75,162.147,0.114916
2321,39208,153.957,160.191,0.415949
2379,40188.2,152.202,158.29,0.153987
2437,41168.4,150.502,156.441,0.229731
2495,42148.6,148.865,154.647,0.462146
2553,43128.8,147.266,152.904,0.589739
2611,44109,145.711,151.212,0.563515
2669,45089.2,144.201,149.566,0.294392
2727,46069.4,142.74,147.967,0.291912
2785,47049.6,141.308,146.412,0.131296
2843,48029.8,139.925,144.898,-0.061979
2901,49010,138.585,143.429,0.042383
2959,49990.2,137.202,141.994,0.370929
3017,50970.4,135.839,140.57,0.165321
3075,51950.6,134.571,139.183,0.078331
3133,52930.8,133.235,137.817,0.315594
3191,53911,132.053,136.48,0.169195
3249,54891.2,130.957,135.2,0.085586
3307,55871.4,129.883,133.974,0.197144
3365,56851.6,128.824,132.79,0.055588
3423,57831.8,127.785,131.643,-0.015407
3481,58812,126.766,130.528,0.036996
3539,59792.2,125.798,129.446,-0.186145
3597,60772.4,124.855,128.399,-0.168015
3655,61752.6,123.944,127.383,-0.16931
3713,62732.8,123.06,126.399,-0.156936
3771,63713,122.239,125.451,-0.198778
3829,64693.2,121.463,124.543,-0.260507
3887,65673.4,120.724,123.675,-0.263335
3945,66653.6,120.043,122.848,-0.329102
4003,67633.8,119.409,122.067,-0.274324
4061,68614,118.87,121.337,-0.382916
4119,69594.2,118.405,120.669,-0.391793
4177,70574.4,117.88,120.045,-0.322599
4235,71554.6,117.438,119.459,-0.345971
4293,72534.8,116.978,118.911,-0.336702
4351,73515,116.584,118.391,-0.356927
4409,74495.2,116.132,117.904,-0.342495
4467,75475.4,115.705,117.417,-0.370776
4525,76455.6,115.286,116.957,-0.366006
4583,77435.8,114.864,116.505,-0.36327
4641,78416,114.421,116.056,-0.352169
4699,79396.2,113.956,115.603,-0.361037
4757,80376.4,113.605,115.165,-0.366326
4815,81356.6,113.26,114.753,-0.317169
4873,82336.8,112.985,114.364,-0.343655
4931,83317,112.784,114.016,-0.39647
4989,84297.2,112.607,113.711,-0.413977
5047,85277.4,112.415,113.438,-0.420845
5105,86257.6,112.232,113.186,-0.426763
5163,87237.8,112.055,112.953,-0.439343
5221,88218,111.903,112.737,-0.445508
5279,89198.2,111.776,112.542,-0.465366
5337,90178.4,111.656,112.366,-0.47329
5395,91158.6,111.532,112.204,-0.461293
5453,92138.8,111.412,112.052,-0.477116
5511,93119,111.306,111.911,-0.481281
5569,94099.2,111.211,111.78,-0.480816
5627,95079.4,111.118,111.658,-0.486158
5685,96059.6,111.026,111.546,-0.492396
5743,97039.8,110.917,111.435,-0.509412
5801,98020,110.781,111.3216,-0.498126
5859,99000.2,110.627,111.199,-0.488088
5917,99980.4,110.469,111.067,-0.487011
5975,100960.6,110.342,110.933,-0.484709
6033,101940.8,110.219,110.803,-0.48455
6091,102921,110.098,110.674,-0.498317
6149,103901.2,109.97,110.546,-0.492897
6207,104881.4,109.824,110.416,-0.4974
6265,105861.6,109.68,110.283,-0.490434
6323,106841.8,111.113,110.258,-0.732997
6381,107822,112.824,110.719,-0.920498
6439,108802.2,114.462,111.483,-1.059086
6497,109782.4,116.098,112.475,-1.159396
6555,110762.6,117.734,113.631,-1.237177
6613,111742.8,119.371,114.908,-1.279921
6671,112723,121.008,116.275,-1.31851
6729,113703.2,122.638,117.71,-1.333169
6787,114683.4,124.272,119.19,-1.357746
6845,115663.6,125.919,120.7,-1.357128
6903,116643.8,127.556,122.244,-1.350912
6961,117624,129.19,123.81,-1.350965
7019,118604.2,130.813,125.388,-1.33729
7077,119584.4,132.436,126.976,-1.335851
7135,120564.6,134.088,128.57,-1.326803
7193,121544.8,135.732,130.171,-1.306797
7251,122525,137.353,131.785,-1.299328
7309,123505.2,138.993,133.399,-1.287286
7367,124485.4,140.62,135.014,-1.26892
7425,125465.6,142.258,136.631,-1.260172
7483,126445.8,143.885,138.252,-1.246694
7541,127426,145.51,139.87,-1.229427
7599,128406.2,147.153,141.489,-1.222275
7657,129386.4,148.795,143.11,-1.213033
7715,130366.6,150.43,144.738,-1.194159
7773,131346.8,152.043,146.368,-1.177167
7831,132327,153.695,147.993,-1.153602
7889,133307.2,155.327,149.627,-1.153096
7947,134287.4,156.943,151.262,-1.106972
8005,135267.6,158.591,152.893,-1.091475
8063,136247.8,160.219,154.524,-1.079892
8121,137228,161.861,156.154,-1.048953
8179,138208.2,163.487,157.791,-1.027513
8237,139188.4,165.123,159.428,-0.992303
8295,140168.6,166.754,161.062,-0.982706
8353,141148.8,168.403,162.7,-0.901195
8411,142129,170.027,164.339,-0.882508
8469,143109.2,171.655,165.977,-0.860686
8527,144089.4,173.292,167.617,-0.778991
8585,145069.6,174.931,169.254,-0.787672
8643,146049.8,176.567,170.898,-0.723991
8701,147030,178.198,172.54,-0.613246
8759,148010.2,179.824,174.182,-0.57685
8817,148990.4,181.46,175.823,-0.551318
8875,149970.6,183.103,177.469,-0.569861
8933,150950.8,184.731,179.113,-0.530082
8991,151931,186.36,180.754,-0.482533
9049,152911.2,187.998,182.393,-0.390587
9107,153891.4,189.636,184.036,-0.408657
9165,154871.6,191.26,185.683,-0.365186
9223,155851.8,192.894,187.326,-0.41876
9281,156832,194.529,188.967,-0.348877
9339,157812.2,196.169,190.606,-0.276999
9397,158792.4,197.797,192.25,-0.160627
9455,159772.6,199.438,193.898,-0.040425
9513,160752.8,201.066,195.544,0.002281
9571,161733,202.703,197.189,-0.187167
9629,162713.2,204.332,198.836,-0.134934
9687,163693.4,205.968,200.482,-0.025757
9745,164673.6,207.601,202.128,-0.007122
9803,165653.8,209.236,203.773,0.267378
9861,166634,210.869,205.419,0.103248
9919,167614.2,212.504,207.064,0.016062
9977,168594.4,214.134,208.71,0.123743
10035,169574.6,215.77,210.352,0.242655
10093,170554.8,217.404,211.996,0.164531
10151,171535,219.036,213.64,0.244599
10209,172515.2,220.67,215.284,0.173614
10267,173495.4,222.305,216.928,0.284747
10325,174475.6,223.935,218.572,0.436177
10383,175455.8,225.574,220.215,0.313242
10441,176436,227.205,221.858,0.379423
10499,177416.2,228.837,223.502,0.327285
10557,178396.4,230.474,225.144,0.480194
10615,179376.6,232.107,226.788,0.289105
10673,180356.8,233.738,228.43,0.396252
10731,181337,235.374,230.074,0.161217
10789,182317.2,237.008,231.716,0.458306
10847,183297.4,238.64,233.358,0.377642
10905,184277.6,240.274,234.9993,0.438114
10963,185257.8,241.908,236.642,0.31363
11021,186238,243.541,238.284,0.747336
11079,187218.2,245.174,239.925,0.28908
11137,188198.4,246.808,241.568,0.501668
11195,189178.6,248.442,243.209,0.392142
11253,190158.8,250.076,244.851,0.267598
11311,191139,251.709,246.491,0.463091
11369,192119.2,253.343,248.133,0.464315
11427,193099.4,254.972,249.773,0.455849
11485,194079.6,256.611,251.409,0.43084
11543,195059.8,258.245,253.047,0.378494
11601,196040,259.878,254.688,0.348235
11659,197020.2,261.511,256.326,0.411772
11717,198000.4,263.144,257.967,0.385228
11775,198980.6,264.784,259.605,0.483314
11833,199960.8,266.409,261.248,0.532042
11891,200941,268.044,262.886,0.417444
11949,201921.2,269.68,264.524,0.515125
12007,202901.4,271.318,266.164,0.585596
12065,203881.6,272.945,267.805,0.420857
12123,204861.8,274.583,269.448,0.465867
12181,205842,276.214,271.089,0.505374
12239,206822.2,277.849,272.728,0.529878
12297,207802.4,279.485,274.368,0.5162
12355,208782.6,281.117,276.01,0.475673
12413,209762.8,282.75,277.651,0.495746
12471,210743,284.385,279.293,0.468611
12529,211723.2,286.019,280.935,0.480779
12587,212703.4,287.651,282.578,0.490298
12645,213683.6,289.285,284.219,0.505372
12703,214663.8,290.913,285.858,0.536751
12761,215644,292.544,287.494,0.574108
12819,216624.2,294.178,289.121,0.589525
12877,217604.4,295.819,290.746,0.639493
12935,218584.6,297.451,292.365,0.69501
12993,219564.8,299.072,293.968,0.663685
13051,220545,299.162,295.327,0.634191
13109,221525.2,299.157,296.248,0.652342
13167,222505.4,299.149,296.863,0.684933
13225,223485.6,299.156,297.272,0.692041
13283,224465.8,299.15,297.539,0.703535
13341,225446,299.154,297.715,0.706674
13399,226426.2,299.146,297.834,0.717064
13457,227406.4,299.147,297.906,0.726454
13515,228386.6,299.14,297.952,0.730026
13573,229366.8,299.145,297.974,0.717823
13631,230347,299.144,297.995,0.718323
13689,231327.2,299.148,297.996,0.707509
13747,232307.4,299.15,297.992,0.724676
13805,233287.6,299.153,298,0.726043
13863,234267.8,299.149,297.988,0.694126
13921,235248,299.161,297.974,0.686412
13979,236228.2,299.134,297.959,0.706848
14037,237208.4,299.157,297.944,0.681626
14095,238188.6,299.166,297.947,0.699132
14153,239168.8,299.153,297.952,0.717152
14211,240149,299.169,297.968,0.724179
14269,241129.2,299.158,297.983,0.732921
14327,242109.4,299.152,298.001,0.735655
14385,243089.6,299.154,298.015,0.725347
14443,244069.8,299.164,298.032,0.736147
14501,245050,299.158,298.053,0.738879
14559,246030.2,299.165,298.082,0.776959
14617,247010.4,299.152,298.112,0.772302
14675,247990.6,299.159,298.138,0.772283
14733,248970.8,299.16,298.167,0.784273
14791,249951,299.161,298.196,0.79163
14849,250931.2,299.149,298.222,0.766384
14907,251911.4,299.152,298.239,0.787479
14954,252705.7,299.158,298.251,0.782321

File: H2O-NH3_2.5108g.csv
H2O-NH3 0wt%  Specific Heat - Large HF,,,,
Creation Date : 8/9/2022 9:38:15 AM,,,,
User : admin,,,,
,,,,
HeatFlow :,,,,
 Initial Mass : 2510.8 mg,,,,
 Molar Mass : 18 g/mol,,,,
,,,,
Index,Time(s),Furnace Temperature(K),Sample Temperature(K),HeatFlow(mW)
1,0,298.754,298.695,215.11
59,980.2,298.668,298.718,5.479416
117,1960.4,297.64,298.577,1.210592
175,2940.6,293.86,297.702,8.578241
233,3920.8,287.011,295.225,25.9531
291,4901,279.696,291.171,43.6969
349,5881.2,272.831,286.11,55.6452
407,6861.4,266.405,280.559,61.73364
465,7841.6,260.399,274.839,64.3196
523,8821.8,254.793,269.15,65.0185
581,9802,249.471,263.592,64.174
639,10782.2,244.371,258.201,62.6968
697,11762.4,239.514,253.091,160.561
755,12742.6,234.832,248.036,30.1293
813,13722.8,230.311,243.167,26.1028
871,14703,225.944,238.4714,24.5503
929,15683.2,221.737,233.943,23.4654
987,16663.4,217.668,229.573,21.9738
1045,17643.6,213.752,225.352,21.1702
1103,18623.8,209.976,221.277,20.0944
1161,19604,206.325,217.343,19.0754
1219,20584.2,202.764,213.538,17.7554
1277,21564.4,199.324,209.845,16.7639
1335,22544.6,196.03,206.276,15.9576
1393,23524.8,192.811,202.824,15.4458
1451,24505,189.535,199.452,14.2376
1509,25485.2,186.247,196.123,13.9013
1567,26465.4,183.127,192.848,13.1623
1625,27445.6,180.154,189.662,12.6913
1683,28425.8,177.294,186.57,12.2977
1741,29406,174.505,183.572,11.471
1799,30386.2,171.732,180.652,11.0006
1857,31366.4,169.063,177.8,11.0798
1915,32346.6,166.515,175.029,10.692
1973,33326.8,163.957,172.328,10.3803
2031,34307,161.406,169.68,9.785322
2089,35287.2,158.93,167.083,9.413796
2147,36267.4,156.456,164.535,9.344655
2205,37247.6,154.169,162.037,9.370953
2263,38227.8,151.797,159.596,9.078666
2321,39208,149.402,157.19,8.764926
2379,40188.2,146.997,154.786,8.866738
2437,41168.4,144.645,152.391,8.816145
2495,42148.6,142.419,150.021,8.103022
2553,43128.8,139.955,147.663,8.01862
2611,44109,137.733,145.32,7.983482
2669,45089.2,135.927,143.074,7.525888
2727,46069.4,134.156,140.963,6.979806
2785,47049.6,132.505,138.965,6.508946
2843,48029.8,130.809,137.054,6.318784
2901,49010,128.657,135.121,6.262944
2959,49990.2,126.868,133.194,5.876331
3017,50970.4,125.254,131.336,5.329505
3075,51950.6,123.434,129.52,5.415045
3133,52930.8,121.823,127.719,5.062769
3191,53911,119.744,125.926,5.149916
3249,54891.2,117.782,124.06,5.254068
3307,55871.4,115.961,122.168,5.205367
3365,56851.6,114.453,120.349,4.942327
3423,57831.8,112.947,118.628,4.580931
3481,58812,111.597,116.971,4.337172
3539,59792.2,110.396,115.421,3.994342
3597,60772.4,109.069,113.932,3.789849
3655,61752.6,107.954,112.525,3.539834
3713,62732.8,106.689,111.195,3.322978
3771,63713,104.737,109.771,3.628321
3829,64693.2,102.194,108.167,4.15742
3887,65673.4,98.985,106.201,5.401055
3945,66653.6,96.3167,103.942,5.493342
4003,67633.8,94.4043,101.668,5.198899
4061,68614,92.9794,99.549,5.036626
4119,69594.2,91.981,97.6714,4.38129
4177,70574.4,91.35668,96.0776,3.577529
4235,71554.6,90.9859,94.7816,2.767271
4293,72534.8,90.7456,93.7521,1.9464
4351,73515,90.5931,92.9465,1.428614
4409,74495.2,90.5235,92.3326,0.937827
4467,75475.4,90.5128,91.8772,0.518146
4525,76455.6,90.643,91.5632,0.129559
4583,77435.8,90.9659,91.3996,-0.286781
4641,78416,91.4418,91.3934,-0.702274
4699,79396.2,91.9113,91.5174,-1.049267
4757,80376.4,92.378,91.7347,-1.273921
4815,81356.6,92.8469,92.0222,-1.466677
4873,82336.8,93.2872,92.3514,-1.564451
4931,83317,93.7902,92.7306,-1.708597
4989,84297.2,94.3195,93.1395,-1.800095
5047,85277.4,94.8636,93.5864,-1.899512
5105,86257.6,95.3676,94.0523,-1.940697
5163,87237.8,95.8441,94.5258,-1.958465
5221,88218,96.2743,94.9915,-1.92737
5279,89198.2,96.6877,95.444,-1.885226
5337,90178.4,97.07926,95.8814,-1.846128
5395,91158.6,97.4707,96.3074,-1.820737
5453,92138.8,97.841,96.7172,-1.775381
5511,93119,98.1599,97.1114,-1.729567
5569,94099.2,98.4137,97.4745,-1.63054
5627,95079.4,98.6687,97.8038,-1.548374
5685,96059.6,98.9338,98.1141,-1.498389
5743,97039.8,99.1951,98.4113,-1.468286
5801,98020,99.4508,98.6983,-1.437107
5859,99000.2,99.635,98.9687,-1.37539
5917,99980.4,99.8328,99.2145,-1.314236
5975,100960.6,101.319,99.5401,-1.780251
6033,101940.8,103.024,100.274,-2.910289
6091,102921,104.659,101.246,-3.593601
6149,103901.2,106.304,102.391,-4.091871
6207,104881.4,107.936,103.66,-4.448544
6265,105861.6,109.574,105.018,-4.727773
6323,106841.8,111.209,106.449,-4.951379
6381,107822,112.828,107.921,-5.096507
6439,108802.2,114.479,109.43,-5.25651
6497,109782.4,116.113,110.96,-5.353268
6555,110762.6,117.739,112.52,-5.470754
6613,111742.8,119.38,114.088,-5.559827
6671,112723,121.013,115.669,-5.633841
6729,113703.2,122.644,117.262,-5.704841
6787,114683.4,124.281,118.858,-5.74813
6845,115663.6,125.921,120.462,-5.796543
6903,116643.8,127.549,122.063,-5.813046
6961,117624,129.18,123.673,-5.864024
7019,118604.2,130.824,125.28,-5.889593
7077,119584.4,132.451,126.894,-5.941055
7135,120564.6,134.09,128.514,-5.977265
7193,121544.8,135.716,130.133,-6.003499
7251,122525,137.338,131.751,-6.041123
7309,123505.2,138.987,133.366,-6.069559
7367,124485.4,140.608,134.979,-6.095128
7425,125465.6,142.264,136.593,-6.127539
7483,126445.8,143.883,138.212,-6.166485
7541,127426,145.519,139.83,-6.204253
7599,128406.2,147.154,141.456,-6.265958
7657,129386.4,148.795,143.081,-6.287247
7715,130366.6,150.425,144.71,-6.342324
7773,131346.8,152.049,146.343,-6.373131
7831,132327,153.678,147.974,-6.402235
7889,133307.2,155.33,149.601,-6.411531
7947,134287.4,156.959,151.231,-6.445745
8005,135267.6,158.591,152.861,-6.460247
8063,136247.8,160.216,154.494,-6.487687
8121,137228,161.863,156.118,-6.488173
8179,138208.2,163.484,157.746,-6.518659
8237,139188.4,165.124,159.3748,-6.551749
8295,140168.6,166.756,161.01,-6.584873
8353,141148.8,168.392,162.646,-6.645652
8411,142129,170.021,164.284,-6.67019
8469,143109.2,171.656,165.922,-6.650529
8527,144089.4,173.293,167.563,-6.729791
8585,145069.6,174.922,169.2,-6.704089
8643,146049.8,176.548,170.839,-6.742157
8701,147030,178.188,172.472,-6.713381
8759,148010.2,179.828,174.104,-6.777964
8817,148990.4,181.469,175.733,-6.812395
8875,149970.6,183.105,177.373,-6.821301
8933,150950.8,184.737,179.015,-6.859744
8991,151931,186.369,180.658,-6.840516
9049,152911.2,187.998,182.307,-6.869127
9107,153891.4,189.635,183.959,-6.933017
9165,154871.6,191.272,185.616,-6.915466
9223,155851.8,192.894,187.271,-6.962123
9281,156832,194.528,188.923,-7.015131
9339,157812.2,196.17,190.571,-6.954594
9397,158792.4,197.811,192.223,-6.967016
9455,159772.6,199.426,193.877,-6.753348
9513,160752.8,201.071,195.526,-6.751918
9571,161733,202.695,197.172,-6.87702
9629,162713.2,204.333,198.816,-6.99353
9687,163693.4,205.977,200.46,-7.053706
9745,164673.6,207.596,202.107,-6.859482
9803,165653.8,209.234,203.754,-6.94874
9861,166634,210.872,205.397,-6.858767
9919,167614.2,212.504,207.04,-7.036356
9977,168594.4,214.138,208.686,-7.148143
10035,169574.6,215.77,210.331,-6.971894
10093,170554.8,217.405,211.977,-7.195512
10151,171535,219.036,213.623,-7.032675
10209,172515.2,220.669,215.267,-7.011522
10267,173495.4,222.305,216.912,-7.210195
10325,174475.6,223.938,218.556,-7.192503
10383,175455.8,225.57,220.201,-7.067621
10441,176436,227.204,221.844,-7.513012
10499,177416.2,228.838,223.488,-6.98913
10557,178396.4,230.471,225.131,-7.515567
10615,179376.6,232.105,226.773,-7.421624
10673,180356.8,233.738,228.416,-7.410349
10731,181337,235.372,230.058,-7.467747
10789,182317.2,237.006,231.699,-7.656011
10847,183297.4,238.642,233.341,-7.567064
10905,184277.6,240.272,234.984,-7.670625
10963,185257.8,241.906,236.625,-7.735583
11021,186238,243.541,238.265,-7.618362
11079,187218.2,245.169,239.906,-7.765567
11137,188198.4,246.808,241.543,-7.849996
11195,189178.6,248.452,243.185,-7.901912
11253,190158.8,250.069,244.83,-7.788334
11311,191139,251.713,246.469,-7.861081
11369,192119.2,253.341,248.111,-7.877502
11427,193099.4,254.976,249.751,-8.116614
11485,194079.6,256.609,251.393,-8.090146
11543,195059.8,258.242,253.032,-7.980432
11601,196040,259.879,254.67,-8.144732
11659,197020.2,261.51,256.312,-8.127526
11717,198000.4,263.149,257.951,-8.3199
11775,198980.6,264.778,259.593,-8.358438
11833,199960.8,266.412,261.233,-8.36911
11891,200941,268.047,262.874,-8.478259
11949,201921.2,269.681,264.514,-8.517825
12007,202901.4,271.317,266.156,-8.603348
12065,203881.6,272.95,267.8,-8.713134
12123,204861.8,274.578,269.443,-8.769676
12181,205842,276.215,271.084,-8.819221
12239,206822.2,277.85,272.726,-8.998587
12297,207802.4,279.481,274.363,-96.6539
12355,208782.6,281.117,275.977,-290.861
12413,209762.8,282.747,277.577,-386.294
12471,210743,284.38,279.195,-151.934
12529,211723.2,286.017,280.852,-21.8827
12587,212703.4,287.655,282.51,-17.972
12645,213683.6,289.283,284.166,-17.802
12703,214663.8,290.909,285.811,-17.6863
12761,215644,292.547,287.443,-17.4899
12819,216624.2,294.183,289.075,-17.4304
12877,217604.4,295.818,290.71,-17.4102
12935,218584.6,297.45,292.341,-17.3324
12993,219564.8,299.086,293.963,-17.2552
13051,220545,299.162,295.338,-14.70997
13109,221525.2,299.162,296.266,-9.937289
13167,222505.4,299.157,296.883,-6.369785
13225,223485.6,299.153,297.291,-3.974218
13283,224465.8,299.151,297.565,-2.411223
13341,225446,299.14,297.744,-1.323002
13399,226426.2,299.138,297.852,-0.526673
13457,227406.4,299.1526,297.921,-0.066774
13515,228386.6,299.145,297.968,0.196021
13573,229366.8,299.15,297.997,0.386195
13631,230347,299.151,298.024,0.447459
13689,231327.2,299.149,298.037,0.593343
13747,232307.4,299.148,298.046,0.638134
13805,233287.6,299.138,298.051,0.676062
13863,234267.8,299.141,298.049,0.756388
13921,235248,299.15,298.046,0.753301
13979,236228.2,299.144,298.048,0.721891
14037,237208.4,299.161,298.054,0.697686
14095,238188.6,299.16,298.07,0.580452
14153,239168.8,299.162,298.092,0.538219
14211,240149,299.148,298.117,0.501994
14269,241129.2,299.156,298.134,0.588824
14327,242109.4,299.159,298.156,0.562726
14385,243089.6,299.161,298.178,0.57181
14443,244069.8,299.155,298.203,0.545025
14501,245050,299.156,298.223,0.572642
14559,246030.2,299.153,298.242,0.586703
14617,247010.4,299.15,298.254,0.638862
14675,247990.6,299.152,298.263,0.666313
14733,248970.8,299.147,298.268,0.719676
14791,249951,299.15,298.27,0.785739
14849,250931.2,299.149,298.271,0.803927
14907,251911.4,299.156,298.274,0.774067
14954,252705.7,299.151,298.279,0.745064