Folder: NH3_Calorimetry/z_unorganized_archive/i_data/46C (part 2)

File: H2O-NH3_4.5386g.csv
H2O-NH3 6wt% Specific Heat - Large HF 08Nov22,,,,
Creation Date : 11/11/2022 2:20:15 PM,,,,
User : admin,,,,
,,,,
HeatFlow :,,,,
 Initial Mass : 4538.6 mg,,,,
 Molar Mass : 17 g/mol,,,,
,,,,
Index,Time(s),Furnace Temperature(K),Sample Temperature(K),HeatFlow(mW)
1,0,318.81,318.221,-1769.14
59,1026.6,317.0306,317.978,-64.7031
117,2053.2,315.013,317.305,9.2509
175,3079.8,309.306,315.528,31.83
233,4106.4,300.871,311.677,70.6674
291,5133,292.564,306.189,102.585
349,6159.6,284.925,299.893,119.051
407,7186.2,277.808,293.298,124.939
465,8212.8,271.142,286.703,125.29
523,9239.4,264.849,280.19,123.603
581,10266,258.804,273.864,120.089
639,11292.6,253.015,267.744,116.34
697,12319.2,247.486,261.842,112.456
755,13345.8,242.173,256.16,108.556
813,14372.4,237.149,250.776,903.589
871,15399,232.341,245.567,193.179
929,16425.6,227.676,240.52,105.649
987,17452.2,223.155,235.662,83.5683
1045,18478.8,218.889,230.985,70.1935
1103,19505.4,214.903,226.531,61.067
1161,20532,210.992,222.268,53.6424
1219,21558.6,207.216,218.168,48.2656
1277,22585.2,203.568,214.223,43.8161
1335,23611.8,200.019,210.408,40.0179
1393,24638.4,196.581,206.719,36.699
1451,25665,193.331,203.158,34.3055
1509,26691.6,190.166,199.731,31.992
1567,27718.2,187.077,196.415,30.2766
1625,28744.8,184.071,193.197,28.7909
1683,29771.4,181.173,190.074,26.64348
1741,30798,178.494,187.07,25.0103
1799,31824.6,175.928,184.196,23.5449
1857,32851.2,173.446,181.44,22.2314
1915,33877.8,171.032,178.787,21.12606
1973,34904.4,168.697,176.226,19.2404
2031,35931,166.43,173.752,18.5339
2089,36957.6,164.239,171.358,17.8643
2147,37984.2,162.123,169.043,17.1531
2205,39010.8,160.102,166.807,16.5464
2263,40037.4,158.17,164.654,15.6041
2321,41064,156.345,162.585,14.5538
2379,42090.6,154.589,160.605,14.4312
2437,43117.2,152.846,158.694,13.2463
2495,44143.8,151.144,156.843,12.7718
2553,45170.4,149.488,155.044,12.3988
2611,46197,147.893,153.299,12.0682
2669,47223.6,146.365,151.609,11.2341
2727,48250.2,144.886,149.975,11.1178
2785,49276.8,143.46,148.397,10.5441
2843,50303.4,142.089,146.871,9.899493
2901,51330,140.769,145.399,9.527794
2959,52356.6,139.47,143.975,9.360703
3017,53383.2,138.197,142.591,8.732898
3075,54409.8,136.975,141.247,8.659179
3133,55436.4,135.781,139.943,8.121161
3191,56463,134.628,138.677,7.884958
3249,57489.6,133.509,137.448,7.515874
3307,58516.2,132.397,136.252,7.2322
3365,59542.8,131.324,135.085,6.866571
3423,60569.4,130.262,133.948,6.714264
3481,61596,129.237,132.8357,6.537594
3539,62622.6,128.232,131.752,6.234758
3597,63649.2,127.251,130.695,6.047879
3655,64675.8,126.31,129.665,5.79869
3713,65702.4,125.421,128.665,5.500036
3771,66729,124.585,127.706,5.340022
3829,67755.6,123.763,126.782,5.065414
3887,68782.2,122.963,125.889,4.7406
3945,69808.8,122.223,125.03,4.643314
4003,70835.4,121.5474,124.214,4.380883
4061,71862,120.872,123.437,4.075145
4119,72888.6,120.207,122.689,3.826548
4177,73915.2,119.551,121.965,3.750481
4235,74941.8,118.924,121.263,3.435497
4293,75968.4,118.314,120.583,3.332655
4351,76995,117.752,119.93,3.242919
4409,78021.6,117.226,119.307,2.993547
4467,79048.2,116.739,118.718,2.775195
4525,80074.8,116.242,118.155,2.603483
4583,81101.4,115.785,117.613,2.476441
4641,82128,115.376,117.102,2.278193
4699,83154.6,114.978,116.62,2.12301
4757,84181.2,114.631,116.169,1.934249
4815,85207.8,114.28,115.745,1.798943
4873,86234.4,113.954,115.345,1.636538
4931,87261,113.642,114.967,1.487433
4989,88287.6,113.336,114.606,1.368081
5047,89314.2,113.054,114.265,1.252186
5105,90340.8,112.775,113.94,1.163738
5163,91367.4,112.508,113.629,1.095987
5221,92394,112.25,113.332,1.039994
5279,93420.6,111.946,113.042,1.00988
5337,94447.2,111.634,112.741,1.035223
5395,95473.8,111.373,112.446,0.990346
5453,96500.4,111.131,112.165,0.929581
5511,97527,110.95,111.902,0.819985
5569,98553.6,110.699,111.656,0.744
5627,99580.2,110.402,111.396,0.817756
5685,100606.8,110.155,111.13,0.82026
5743,101633.4,109.987,110.885,0.712636
5801,102660,109.713,110.648,0.712327
5859,103686.6,109.426,110.399,0.759218
5917,104713.2,109.147,110.138,0.79641
5975,105739.8,108.939,109.881,0.749045
6033,106766.4,111.077,109.926,-1.418859
6091,107793,112.78,110.471,-3.601586
6149,108819.6,114.499,111.331,-5.120755
6207,109846.2,116.214,112.42,-6.263482
6265,110872.8,117.931,113.676,-7.142027
6323,111899.4,119.629,115.055,-7.860148
6381,112926,121.354,116.52,-8.501649
6439,113952.6,123.062,118.051,-9.192711
6497,114979.2,124.772,119.627,-10.0998
6555,116005.8,126.484,121.234,-11.0846
6613,117032.4,128.197,122.865,-10.8492
6671,118059,129.908,124.515,-10.75
6729,119085.6,131.617,126.176,-10.8795
6787,120112.2,133.33,127.848,-11.0211
6845,121138.8,135.039,129.526,-11.134
6903,122165.4,136.752,131.209,-11.2323
6961,123192,138.463,132.896,-11.3354
7019,124218.6,140.174,134.586,-11.4188
7077,125245.2,141.885,136.281,-11.4926
7135,126271.8,143.596,137.975,-11.5755
7193,127298.4,145.307,139.671,-11.6501
7251,128325,147.018,141.368,-11.723
7309,129351.6,148.728,143.069,-11.7573
7367,130378.2,150.44,144.771,-11.5988
7425,131404.8,152.151,146.476,-10.7834
7483,132431.4,153.861,148.184,-8.052758
7541,133458,155.575,149.892,-0.005903
7599,134484.6,157.274,151.603,16.8137
7657,135511.2,158.999,153.313,18.9298
7715,136537.8,160.712,155.027,-3.32448
7773,137564.4,162.416,156.739,-9.608246
7831,138591,164.124,158.45,-10.67604
7889,139617.6,165.831,160.157,-11.05948
7947,140644.2,167.558,161.865,-11.2226
8005,141670.8,169.269,163.579,-11.27759
8063,142697.4,170.973,165.294,-11.3965
8121,143724,172.688,167.012,-11.53584
8179,144750.6,174.396,168.732,-11.9551
8237,145777.2,176.106,170.452,-16.04419
8295,146803.8,177.815,172.171,-9.343086
8353,147830.4,179.528,173.891,-11.53969
8411,148857,181.238,175.609,-14.6392
8469,149883.6,182.95,177.317,-112.299
8527,150910.2,184.662,179.031,-19.4258
8585,151936.8,186.372,180.754,-14.6275
8643,152963.4,188.083,182.476,-14.6225
8701,153990,189.79,184.196,-14.7069
8759,155016.6,191.501,185.911,-14.7857
8817,156043.2,193.213,187.623,-14.8685
8875,157069.8,194.927,189.337,-14.9394
8933,158096.4,196.639,191.052,-15.1265
8991,159123,198.35,192.771,-15.4643
9049,160149.6,200.061,194.491,-15.4432
9107,161176.2,201.771,196.211,-15.718
9165,162202.8,203.483,197.93,-16.0086
9223,163229.4,205.189,199.65,-16.2052
9281,164256,206.901,201.368,-16.3181
9339,165282.6,208.615,203.082,-16.3091
9397,166309.2,210.331,204.797,-16.50993
9455,167335.8,212.04,206.513,-16.8014
9513,168362.4,213.745,208.232,-17.01799
9571,169389,215.46,209.953,-17.4567
9629,170415.6,217.173,211.678,-17.6938
9687,171442.2,218.883,213.406,-18.1138
9745,172468.8,220.595,215.134,-18.3776
9803,173495.4,222.303,216.861,-18.9481
9861,174522,224.013,218.586,-19.1515
9919,175548.6,225.728,220.31,-19.6122
9977,176575.2,227.438,222.034,-20.3016
10035,177601.8,229.145,223.758,-20.3612
10093,178628.4,230.857,225.476,-20.99642
10151,179655,232.57,227.197,-21.5473
10209,180681.6,234.289,228.92,-22.30004
10267,181708.2,235.996,230.65,-23.0194
10325,182734.8,237.7,232.379,-23.8944
10383,183761.4,239.409,234.097,-24.5712
10441,184788,241.126,235.819,-25.5929
10499,185814.6,242.832,237.536,-26.6575
10557,186841.2,244.546,239.254,-27.848
10615,187867.8,246.258,240.969,-29.1124
10673,188894.4,247.971,242.686,-30.9112
10731,189921,249.682,244.411,-33.172
10789,190947.6,251.396,246.135,-35.4885
10847,191974.2,253.096,247.858,-38.2728
10905,193000.8,254.812,249.576,-41.4155
10963,194027.4,256.523,251.295,-45.6032
11021,195054,258.239,253.012,-50.5713
11079,196080.6,259.949,254.731,-56.8276
11137,197107.2,261.653,256.449,-64.6175
11195,198133.8,263.366,258.162,-74.3319
11253,199160.4,265.079,259.878,-87.3632
11311,200187,266.792,261.592,-104.025
11369,201213.6,268.506,263.309,-124.412
11427,202240.2,270.211,265.024,-148.46
11485,203266.8,271.919,266.735,-168.926
11543,204293.4,273.63,268.447,-158.884
11601,205320,275.344,270.168,-52.6855
11659,206346.6,277.059,271.898,-32.7738
11717,207373.2,278.769,273.624,-32.0686
11775,208399.8,280.475,275.35,-31.9505
11833,209426.4,282.192,277.072,-31.8357
11891,210453,283.898,278.794,-31.8502
11949,211479.6,285.609,280.516,-31.78517
12007,212506.2,287.321,282.233,-31.68925
12065,213532.8,289.035,283.95,-31.7371
12123,214559.4,290.743,285.67,-31.7719
12181,215586,292.455,287.388,-31.7429
12239,216612.6,294.166,289.104,-31.7343
12297,217639.2,295.877,290.819,-31.6524
12355,218665.8,297.588,292.527,-31.5476
12413,219692.4,299.298,294.227,-31.4007
12471,220719,301.009,295.936,-31.536
12529,221745.6,302.721,297.664,-31.8888
12587,222772.2,304.433,299.391,-31.8745
12645,223798.8,306.144,301.114,-31.8016
12703,224825.4,307.856,302.835,-31.7821
12761,225852,309.563,304.556,-31.7762
12819,226878.6,311.277,306.278,-31.78655
12877,227905.2,312.989,307.999,-31.742
12935,228931.8,314.696,309.718,-31.7285
12993,229958.4,316.408,311.44,-31.6924
13051,230985,318.118,313.157,-31.6209
13109,232011.6,319.196,314.832,-31.0802
13167,233038.2,319.165,316.028,-22.4419
13225,234064.8,319.16,316.799,-14.2587
13283,235091.4,319.162,317.296,-8.81065
13341,236118,319.154,317.621,-5.398965
13399,237144.6,319.148,317.834,-3.113553
13457,238171.2,319.151,317.966,-1.558737
13515,239197.8,319.152,318.051,-0.618428
13573,240224.4,319.158,318.107,-0.009618
13631,241251,319.15,318.151,0.221201
13689,242277.6,319.146,318.174,0.622253
13747,243304.2,319.151,318.188,0.814759
13805,244330.8,319.148,318.196,0.879374
13863,245357.4,319.15,318.201,0.967612
13921,246384,319.142,318.199,1.042357
13979,247410.6,319.153,318.192,1.198767
14037,248437.2,319.15,318.186,1.177682
14095,249463.8,319.15,318.182,1.156932
14153,250490.4,319.149,318.173,1.231853
14211,251517,319.144,318.165,1.230005
14269,252543.6,319.15,318.156,1.248572
14327,253570.2,319.1449,318.152,1.150715
14385,254596.8,319.154,318.151,1.132493
14443,255623.4,319.153,318.156,1.013368
14501,256650,319.153,318.163,0.96747
14559,257676.6,319.155,318.171,0.950592
14617,258703.2,319.155,318.18,0.910092
14675,259729.8,319.154,318.189,0.887984
14733,260756.4,319.151,318.196,0.896247
14791,261783,319.15,318.202,0.911596
14849,262809.6,319.147,318.205,0.977227
14907,263836.2,319.149,318.204,1.054164
14956,264703.5,319.151,318.204,1.087908

File: H2O-NH3_4.6844g.csv
H2O-NH3 4wt% Specific Heat - Large HF 28Oct22,,,,
Creation Date : 10/31/2022 3:01:18 PM,,,,
User : admin,,,,
,,,,
HeatFlow :,,,,
 Initial Mass : 4684.4 mg,,,,
 Molar Mass : 17 g/mol,,,,
,,,,
Index,Time(s),Furnace Temperature(K),Sample Temperature(K),HeatFlow(mW)
1,0,318.962,319.009,-1768.14
59,1026.6,317.797,318.686,-64.44666
117,2053.2,316.036,318.081,7.403591
175,3079.8,310.621,316.454,29.2112
233,4106.4,302.099,312.725,69.8256
291,5133,293.601,307.256,104.812
349,6159.6,285.818,300.901,123.348
407,7186.2,278.652,294.234,130.081
465,8212.8,271.925,287.591,130.188
523,9239.4,265.508,281.008,129.202
581,10266,259.379,274.604,126.126
639,11292.6,253.525,268.408,122.605
697,12319.2,247.949,262.4366,118.959
755,13345.8,242.617,256.702,115.002
813,14372.4,237.611,251.326,603.292
871,15399,232.845,246.07,138.169
929,16425.6,228.221,241.022,90.3658
987,17452.2,223.758,236.179,73.9635
1045,18478.8,219.462,231.524,63.6085
1103,19505.4,215.33,227.047,55.1742
1161,20532,211.34,222.736,50.1047
1219,21558.6,207.486,218.581,45.1629
1277,22585.2,203.771,214.574,41.3111
1335,23611.8,200.19,210.704,38.1207
1393,24638.4,196.724,206.968,35.3185
1451,25665,193.378,203.358,33.053
1509,26691.6,190.161,199.871,30.5502
1567,27718.2,187.049,196.503,28.63609
1625,28744.8,184.045,193.249,27.1118
1683,29771.4,181.137,190.103,25.2963
1741,30798,178.31,187.057,24.153
1799,31824.6,175.547,184.104,22.39065
1857,32851.2,172.846,181.226,21.9785
1915,33877.8,170.241,178.431,20.3615
1973,34904.4,167.621,175.703,19.6306
2031,35931,165.03,173.02,19.2539
2089,36957.6,162.473,170.384,19.2498
2147,37984.2,159.938,167.782,18.3898
2205,39010.8,157.505,165.225,18.0793
2263,40037.4,155.207,162.734,17.494
2321,41064,153.007,160.322,16.234
2379,42090.6,150.924,157.997,15.8543
2437,43117.2,148.907,155.757,14.7701
2495,44143.8,146.928,153.591,14.2146
2553,45170.4,145.002,151.492,13.5494
2611,46197,143.222,149.465,12.8167
2669,47223.6,141.484,147.521,12.4034
2727,48250.2,139.776,145.641,11.7268
2785,49276.8,138.109,143.82,11.3115
2843,50303.4,136.506,142.053,10.4493
2901,51330,134.975,140.344,10.4601
2959,52356.6,133.489,138.696,10.0136
3017,53383.2,132.024,137.097,9.346206
3075,54409.8,130.616,135.544,9.020178
3133,55436.4,129.251,134.039,8.630647
3191,56463,127.909,132.578,8.354944
3249,57489.6,126.601,131.156,7.942484
3307,58516.2,125.289,129.765,7.650286
3365,59542.8,124,128.399,7.35489
3423,60569.4,122.749,127.061,7.13119
3481,61596,121.545,125.751,6.96098
3539,62622.6,120.433,124.486,6.651213
3597,63649.2,119.284,123.259,6.385387
3655,64675.8,118.029,122.037,6.493378
3713,65702.4,116.988,120.831,6.112611
3771,66729,115.89,119.669,5.844603
3829,67755.6,114.626,118.5,5.793746
3887,68782.2,113.36,117.292,6.034294
3945,69808.8,112.336,116.108,5.773882
4003,70835.4,111.466,114.986,5.288
4061,71862,110.775,113.962,4.69716
4119,72888.6,110.027,113.026,4.264257
4177,73915.2,109.359,112.153,3.928692
4235,74941.8,108.625,111.319,3.711534
4293,75968.4,107.91,110.525,3.49451
4351,76995,107.299,109.759,3.282761
4409,78021.6,106.733,109.041,3.055681
4467,79048.2,106.308,108.387,2.673088
4525,80074.8,105.895,107.797,2.37073
4583,81101.4,105.554,107.273,2.010331
4641,82128,105.169,106.791,1.830094
4699,83154.6,104.842,106.343,1.625692
4757,84181.2,104.517,105.931,1.45992
4815,85207.8,104.16,105.538,1.37623
4873,86234.4,103.804,105.154,1.311639
4931,87261,103.493,104.781,1.242667
4989,88287.6,103.422,104.461,0.926494
5047,89314.2,103.331,104.21,0.61196
5105,90340.8,103.372,104.014,0.309713
5163,91367.4,103.449,103.9,-0.060956
5221,92394,103.396,103.81,-0.129829
5279,93420.6,103.483,103.751,-0.321135
5337,94447.2,103.482,103.726,-0.458622
5395,95473.8,103.401,103.691,-0.383982
5453,96500.4,103.349,103.646,-0.353089
5511,97527,103.448,103.622,-0.48906
5569,98553.6,103.566,103.635,-0.655933
5627,99580.2,103.677,103.676,-0.796791
5685,100606.8,103.73,103.729,-0.834971
5743,101633.4,103.682,103.768,-0.739749
5801,102660,103.73,103.783,-0.649282
5859,103686.6,105.954,104.112,-2.75888
5917,104713.2,107.643,104.863,-4.52944
5975,105739.8,109.364,105.87,-5.721114
6033,106766.4,111.083,107.073,-6.690819
6091,107793,112.782,108.407,-7.337887
6149,108819.6,114.502,109.84,-7.889788
6207,109846.2,116.221,111.339,-8.287187
6265,110872.8,117.924,112.892,-8.635922
6323,111899.4,119.638,114.485,-8.952476
6381,112926,121.36,116.104,-9.238553
6439,113952.6,123.053,117.747,-9.59377
6497,114979.2,124.777,119.398,-10.068
6555,116005.8,126.495,121.064,-10.7082
6613,117032.4,128.199,122.739,-10.7255
6671,118059,129.908,124.421,-10.6559
6729,119085.6,131.618,126.106,-10.74429
6787,120112.2,133.328,127.793,-10.8539
6845,121138.8,135.04,129.482,-10.94853
6903,122165.4,136.751,131.171,-11.0325
6961,123192,138.464,132.862,-11.1258
7019,124218.6,140.168,134.55,-11.1647
7077,125245.2,141.881,136.233,-11.2142
7135,126271.8,143.597,137.923,-11.3521
7193,127298.4,145.309,139.616,-11.4185
7251,128325,147.012,141.315,-11.5269
7309,129351.6,148.732,143.017,-11.573
7367,130378.2,150.436,144.719,-11.4578
7425,131404.8,152.162,146.421,-10.88237
7483,132431.4,153.869,148.129,-9.225567
7541,133458,155.578,149.842,-5.267359
7599,134484.6,157.286,151.557,3.168737
7657,135511.2,158.994,153.274,11.4108
7715,136537.8,160.698,154.991,-0.532337
7773,137564.4,162.411,156.703,-10.1398
7831,138591,164.133,158.415,-11.0264
7889,139617.6,165.844,160.129,-11.383
7947,140644.2,167.552,161.841,-11.4662
8005,141670.8,169.257,163.556,-11.5722
8063,142697.4,170.965,165.27,-11.6351
8121,143724,172.675,166.983,-11.7365
8179,144750.6,174.397,168.691,-12.03212
8237,145777.2,176.105,170.404,-16.8778
8295,146803.8,177.821,172.114,2.446784
8353,147830.4,179.533,173.83,-11.892
8411,148857,181.243,175.541,-13.5598
8469,149883.6,182.947,177.238,-84.0832
8527,150910.2,184.662,178.947,-16.9276
8585,151936.8,186.354,180.665,-14.0919
8643,152963.4,188.065,182.371,-14.033
8701,153990,189.79,184.06,-13.9777
8759,155016.6,191.497,185.758,-14.1481
8817,156043.2,193.221,187.449,-14.2173
8875,157069.8,194.922,189.149,-14.366
8933,158096.4,196.642,190.839,-14.3641
8991,159123,198.356,192.537,-14.6388
9049,160149.6,200.074,194.231,-14.7031
9107,161176.2,201.7713,195.947,-15.0754
9165,162202.8,203.471,197.65,-15.093
9223,163229.4,205.191,199.355,-15.391
9281,164256,206.91,201.071,-15.5303
9339,165282.6,208.611,202.797,-15.77682
9397,166309.2,210.341,204.528,-16.021
9455,167335.8,212.045,206.277,-16.2225
9513,168362.4,213.756,208.001,-16.19194
9571,169389,215.445,209.735,-16.6019
9629,170415.6,217.188,211.469,-16.8433
9687,171442.2,218.891,213.21,-17.0638
9745,172468.8,220.588,214.958,-17.4439
9803,173495.4,222.316,216.698,-17.6911
9861,174522,224.019,218.442,-17.816
9919,175548.6,225.734,220.183,-18.2955
9977,176575.2,227.44,221.925,-18.5176
10035,177601.8,229.148,223.664,-19.02439
10093,178628.4,230.868,225.399,-19.4827
10151,179655,232.569,227.135,-19.7359
10209,180681.6,234.28,228.867,-20.2092
10267,181708.2,235.999,230.6,-20.7071
10325,182734.8,237.706,232.334,-21.17678
10383,183761.4,239.412,234.062,-21.9833
10441,184788,241.124,235.787,-22.6799
10499,185814.6,242.838,237.512,-23.4824
10557,186841.2,244.545,239.235,-24.1824
10615,187867.8,246.259,240.957,-25.5287
10673,188894.4,247.973,242.682,-26.5824
10731,189921,249.686,244.406,-28.0389
10789,190947.6,251.386,246.132,-29.7844
10847,191974.2,253.098,247.853,-31.5284
10905,193000.8,254.817,249.576,-34.1161
10963,194027.4,256.519,251.294,-37.0465
11021,195054,258.235,253.009,-40.437
11079,196080.6,259.945,254.725,-44.954
11137,197107.2,261.658,256.442,-50.91028
11195,198133.8,263.367,258.158,-58.3419
11253,199160.4,265.08,259.874,-68.29724
11311,200187,266.787,261.589,-81.488
11369,201213.6,268.501,263.301,-99.4875
11427,202240.2,270.215,265.014,-123.962
11485,203266.8,271.92,266.726,-156.643
11543,204293.4,273.634,268.43,-196.755
11601,205320,275.346,270.132,-229.741
11659,206346.6,277.048,271.839,-192.417
11717,207373.2,278.764,273.561,-45.0754
11775,208399.8,280.479,275.293,-34.5353
11833,209426.4,282.19,277.015,-33.9149
11891,210453,283.901,278.74,-33.854
11949,211479.6,285.612,280.466,-33.8514
12007,212506.2,287.326,282.1912,-33.7291
12065,213532.8,289.039,283.919,-33.6369
12123,214559.4,290.747,285.649,-33.6264
12181,215586,292.454,287.376,-33.5483
12239,216612.6,294.167,289.098,-33.4482
12297,217639.2,295.878,290.819,-33.3676
12355,218665.8,297.589,292.533,-33.21631
12413,219692.4,299.3,294.237,-32.9605
12471,220719,301.011,295.948,-32.9881
12529,221745.6,302.722,297.679,-33.2449
12587,222772.2,304.432,299.405,-33.1118
12645,223798.8,306.143,301.128,-33.0773
12703,224825.4,307.854,302.847,-32.9673
12761,225852,309.56,304.562,-32.8342
12819,226878.6,311.267,306.267,-32.6131
12877,227905.2,312.978,307.968,-32.488
12935,228931.8,314.691,309.671,-32.5469
12993,229958.4,316.413,311.372,-32.4192
13051,230985,318.122,313.085,-32.5483
13109,232011.6,319.186,314.755,-32.0698
13167,233038.2,319.163,315.93,-22.9582
13225,234064.8,319.157,316.687,-14.59884
13283,235091.4,319.149,317.175,-9.083779
13341,236118,319.155,317.486,-5.455542
13399,237144.6,319.141,317.692,-3.249237
13457,238171.2,319.159,317.82,-1.650542
13515,239197.8,319.139,317.908,-0.76801
13573,240224.4,319.157,317.955,0.007763
13631,241251,319.156,317.986,0.363481
13689,242277.6,319.145,318.014,0.429958
13747,243304.2,319.154,318.027,0.711753
13805,244330.8,319.153,318.038,0.780256
13863,245357.4,319.153,318.054,0.69419
13921,246384,319.161,318.073,0.679838
13979,247410.6,319.156,318.088,0.747324
14037,248437.2,319.152,318.105,0.727573
14095,249463.8,319.155,318.114,0.862216
14153,250490.4,319.144,318.12,0.914519
14211,251517,319.152,318.128,0.935605
14269,252543.6,319.157,318.136,0.967658
14327,253570.2,319.15,318.145,0.915346
14385,254596.8,319.149,318.15,0.990257
14443,255623.4,319.157,318.153,1.050828
14501,256650,319.151,318.162,0.930688
14559,257676.6,319.15,318.17,0.930683
14617,258703.2,319.151,318.172,1.036303
14675,259729.8,319.151,318.179,0.984332
14733,260756.4,319.151,318.184,0.996476
14791,261783,319.154,318.191,0.981454
14849,262809.6,319.15,318.198,0.982293
14907,263836.2,319.151,318.203,1.006585
14956,264703.5,319.145,318.202,1.063951