Folder: NH3_Calorimetry/z_unorganized_archive/i_data/46C

Note: z_unorganized_archive/README.md
# <u>Calorimetry Analysis</u>
*Repository for analysis code for the calorimetry data of NH3-H2O systems*

Folders:
archive_jack			contributions by Jack DIAB
i_data					.csv files of outputs from the calorimeter (Calisto Program). The first 8 rows are metadata.
i_data_processed		various files resulting from outputs of processing scripts, and data files from literature.
o_heatFlow				outputs and plots pertaining to heat flow
o_specificHeat			outputs and plots pertaining to specific heat
o_unclassifiedFigures	figures that are recently plotted and have no determined classification yet
z_meetings				files used in meetings. They serve as periodic summaries of work done
z_scripts				scripts used.

Note: this is still a work in progress. Scripts, files and folder organization are not final and may not be well documented and accessible. Do contact Bing Hong CHUA at bing.hong.chua@jpl.nasa.gov for assistance.

File: Blank.csv
"Blank - Large HF - -196C to 46C, 0.1 Kmin",,,,
Creation Date : 10/10/2022 9:35:14 AM,,,,
User : admin,,,,
,,,,
HeatFlow :,,,,
 Initial Mass : 0 mg,,,,
 Molar Mass : 17 g/mol,,,,
,,,,
Index,Time(s),Furnace Temperature(K),Sample Temperature(K),HeatFlow(mW)
1,0,318.952,319.0661,-789.414
60,1044.3,317.93,318.798,-9.76473
119,2088.6,316.143,318.2,-0.409148
178,3132.9,310.813,316.557,-0.427884
237,4177.2,302.407,312.827,-0.418943
296,5221.5,294.059,307.379,-0.138687
355,6265.8,286.224,301.041,0.252775
414,7310.1,278.925,294.338,0.163144
473,8354.4,272.059,287.619,0.175956
532,9398.7,265.553,280.954,0.437221
591,10443,259.384,274.47,0.780984
650,11487.3,253.58,268.232,0.841027
709,12531.6,248.026,262.252,0.874977
768,13575.9,242.666,256.51,1.048856
827,14620.2,237.526,250.99,1.411824
886,15664.5,232.361,245.646,1.442468
945,16708.8,227.33,240.424,1.879189
1004,17753.1,222.661,235.368,1.439178
1063,18797.4,218.31,230.544,1.474395
1122,19841.7,214.082,225.938,1.632941
1181,20886,209.945,221.499,1.305825
1240,21930.3,205.864,217.208,1.709289
1299,22974.6,201.84,213.018,1.263449
1358,24018.9,198.05,208.947,1.175532
1417,25063.2,194.326,205.002,0.749797
1476,26107.5,190.643,201.159,0.746547
1535,27151.8,187.063,197.403,0.035678
1594,28196.1,183.559,193.747,-0.526603
1653,29240.4,180.025,190.158,-0.818459
1712,30284.7,176.616,186.612,-0.710695
1771,31329,173.465,183.178,-0.492609
1830,32373.3,170.348,179.853,-0.933173
1889,33417.6,167.26,176.613,-0.360995
1948,34461.9,164.202,173.433,-0.482511
2007,35506.2,161.321,170.3357,-0.264937
2066,36550.5,158.389,167.317,-0.53607
2125,37594.8,155.663,164.359,-0.370531
2184,38639.1,152.637,161.43,-0.056343
2243,39683.4,150.106,158.556,-0.208237
2302,40727.7,147.491,155.819,-0.294052
2361,41772,144.756,153.057,0.016485
2420,42816.3,142.241,150.37,-0.329367
2479,43860.6,139.642,147.724,-0.42918
2538,44904.9,136.963,145.094,-0.250697
2597,45949.2,134.372,142.45,-0.179552
2656,46993.5,131.895,139.831,-0.359829
2715,48037.8,129.597,137.315,-0.33111
2774,49082.1,127.166,134.828,-0.444471
2833,50126.4,124.986,132.401,-0.401544
2892,51170.7,122.736,130.043,-0.362268
2951,52215,120.533,127.721,-0.145739
3010,53259.3,118.696,125.484,-0.415135
3069,54303.6,116.84,123.364,-0.19824
3128,55347.9,115.103,121.34,-0.057825
3187,56392.2,113.415,119.395,-0.168396
3246,57436.5,111.815,117.529,-0.177579
3305,58480.8,110.368,115.755,-0.155848
3364,59525.1,108.975,114.076,-0.251011
3423,60569.4,107.832,112.521,-0.190267
3482,61613.7,106.6,111.079,-0.199046
3541,62658,105.371,109.673,-0.157149
3600,63702.3,104.258,108.344,-0.154625
3659,64746.6,103.358,107.103,-0.196145
3718,65790.9,102.457,105.968,-0.213905
3777,66835.2,101.551,104.893,-0.230268
3836,67879.5,100.724,103.862,-0.223683
3895,68923.8,100.241,102.942,-0.294325
3954,69968.1,99.7013,102.149,-0.290609
4013,71012.4,99.1684,101.416,-0.336272
4072,72056.7,98.7759,100.76,-0.355831
4131,73101,98.5387,100.218,-0.39205
4190,74145.3,98.3728,99.7543,-0.432031
4249,75189.6,98.3819,99.4171,-0.472501
4308,76233.9,98.4543,99.1847,-0.524608
4367,77278.2,98.4998,99.0291,-0.544307
4426,78322.5,98.7071,98.9597,-0.59692
4485,79366.8,98.7964,98.9506,-0.600701
4544,80411.1,98.8553,98.9688,-0.604003
4603,81455.4,99.0231,99.0015,-0.643887
4662,82499.7,99.1314,99.0765,-0.630924
4721,83544,99.35311,99.1685,-0.659239
4780,84588.3,99.4895,99.29,-0.657881
4839,85632.6,99.7426,99.4292,-0.689909
4898,86676.9,99.8596,99.5787,-0.681604
4957,87721.2,99.95896,99.7235,-0.667276
5016,88765.5,100.132,99.854,-0.664182
5075,89809.8,100.289,100.002,-0.673451
5134,90854.1,100.452,100.154,-0.670576
5193,91898.4,100.597,100.307,-0.673744
5252,92942.7,100.727,100.452,-0.66689
5311,93987,100.87,100.592,-0.658406
5370,95031.3,100.954,100.726,-0.665366
5429,96075.6,101.149,100.864,-0.672953
5488,97119.9,101.278,101.008,-0.66948
5547,98164.2,101.329,101.134,-0.647108
5606,99208.5,101.342,101.237,-0.645225
5665,100252.8,101.398,101.323,-0.641103
5724,101297.1,101.476,101.392,-0.627098
5783,102341.4,103.708,101.769,-0.962435
5842,103385.7,105.427,102.571,-1.091237
5901,104430,107.171,103.632,-1.20802
5960,105474.3,108.921,104.874,-1.265694
6019,106518.6,110.66,106.252,-1.315485
6078,107562.9,112.408,107.728,-1.361743
6137,108607.2,114.157,109.271,-1.367911
6196,109651.5,115.899,110.864,-1.372333
6255,110695.8,117.636,112.496,-1.365713
6314,111740.1,119.373,114.149,-1.374874
6373,112784.4,121.124,115.821,-1.371561
6432,113828.7,122.845,117.504,-1.336491
6491,114873,124.592,119.196,-1.326184
6550,115917.3,126.345,120.898,-1.327701
6609,116961.6,128.078,122.603,-1.304745
6668,118005.9,129.814,124.312,-1.287748
6727,119050.2,131.57,126.02,-1.270119
6786,120094.5,133.296,127.7423,-1.260333
6845,121138.8,135.05,129.463,-1.235284
6904,122183.1,136.784,131.186,-1.211099
6963,123227.4,138.53,132.91,-1.213263
7022,124271.7,140.263,134.635,-1.195821
7081,125316,141.998,136.363,-1.170367
7140,126360.3,143.747,138.084,-1.164062
7199,127404.6,145.489,139.81,-1.13519
7258,128448.9,147.229,141.537,-1.129988
7317,129493.2,148.97,143.267,-1.109716
7376,130537.5,150.71,145.001,-1.106239
7435,131581.8,152.45,146.737,-1.087919
7494,132626.1,154.191,148.474,-1.067268
7553,133670.4,155.93,150.212,-1.049739
7612,134714.7,157.67,151.953,-1.017216
7671,135759,159.406,153.692,-1.018892
7730,136803.3,161.148,155.437,-0.986303
7789,137847.6,162.885,157.181,-0.999042
7848,138891.9,164.63,158.926,-0.954018
7907,139936.2,166.375,160.67,-0.929202
7966,140980.5,168.117,162.415,-0.929956
8025,142024.8,169.847,164.16,-0.888232
8084,143069.1,171.594,165.905,-0.879069
8143,144113.4,173.335,167.651,-0.843872
8202,145157.7,175.072,169.396,-0.804457
8261,146202,176.815,171.14,-0.795552
8320,147246.3,178.557,172.886,-0.783459
8379,148290.6,180.298,174.634,-0.662964
8438,149334.9,182.032,176.381,-0.655492
8497,150379.2,183.776,178.125,-0.659794
8556,151423.5,185.521,179.869,-0.591921
8615,152467.8,187.252,181.613,-0.606823
8674,153512.1,189.001,183.357,-0.564061
8733,154556.4,190.743,185.104,-0.382587
8792,155600.7,192.483,186.853,-0.418758
8851,156645,194.226,188.606,-0.359231
8910,157689.3,195.964,190.361,-0.20517
8969,158733.6,197.702,192.121,-0.361187
9028,159777.9,199.438,193.876,-0.314465
9087,160822.2,201.182,195.629,-0.156101
9146,161866.5,202.928,197.384,-0.278425
9205,162910.8,204.664,199.138,-0.303491
9264,163955.1,206.4,200.893,0.016743
9323,164999.4,208.15,202.649,-0.109111
9382,166043.7,209.881,204.403,-0.006066
9441,167088,211.633,206.154,0.102039
9500,168132.3,213.359,207.909,0.109178
9559,169176.6,215.101,209.658,0.242092
9618,170220.9,216.844,211.41,0.196738
9677,171265.2,218.587,213.16,0.053959
9736,172309.5,220.327,214.913,0.317631
9795,173353.8,222.068,216.667,0.193804
9854,174398.1,223.81,218.418,0.570984
9913,175442.4,225.547,220.167,0.271494
9972,176486.7,227.294,221.918,0.28085
10031,177531,229.032,223.673,0.530742
10090,178575.3,230.771,225.428,0.166685
10149,179619.6,232.512,227.18,0.298423
10208,180663.9,234.253,228.932,0.613654
10267,181708.2,235.992,230.685,0.404612
10326,182752.5,237.733,232.435,0.308362
10385,183796.8,239.472,234.187,0.409427
10444,184841.1,241.209,235.935,0.434664
10503,185885.4,242.959,237.682,0.504489
10562,186929.7,244.69,239.43,0.354091
10621,187974,246.439,241.178,0.479911
10680,189018.3,248.169,242.928,0.617709
10739,190062.6,249.918,244.674,0.494356
10798,191106.9,251.653,246.426,0.561852
10857,192151.2,253.395,248.172,0.473829
10916,193195.5,255.142,249.918,0.545784
10975,194239.8,256.876,251.667,0.531927
11034,195284.1,258.617,253.413,0.536919
11093,196328.4,260.36,255.162,0.490018
11152,197372.7,262.1,256.909,0.449377
11211,198417,263.84,258.657,0.540499
11270,199461.3,265.579,260.405,0.609016
11329,200505.6,267.322,262.153,0.565042
11388,201549.9,269.065,263.903,0.57072
11447,202594.2,270.804,265.653,0.547117
11506,203638.5,272.543,267.405,0.476828
11565,204682.8,274.285,269.154,0.484529
11624,205727.1,276.021,270.903,0.52836
11683,206771.4,277.762,272.65,0.540539
11742,207815.7,279.504,274.393,0.535758
11801,208860,281.247,276.141,0.593655
11860,209904.3,282.984,277.885,0.581973
11919,210948.6,284.721,279.626,0.60698
11978,211992.9,286.465,281.37,0.62019
12037,213037.2,288.209,283.115,0.661452
12096,214081.5,289.944,284.859,0.667581
12155,215125.8,291.687,286.602,0.692302
12214,216170.1,293.425,288.343,0.71938
12273,217214.4,295.168,290.081,0.750884
12332,218258.7,296.91,291.82,0.822542
12391,219303,298.643,293.548,0.791562
12450,220347.3,300.39,295.266,0.80944
12509,221391.6,302.119,297.014,0.845815
12568,222435.9,303.873,298.757,0.85826
12627,223480.2,305.608,300.498,0.889703
12686,224524.5,307.348,302.237,0.922958
12745,225568.8,309.093,303.978,0.950166
12804,226613.1,310.83,305.722,0.979025
12863,227657.4,312.577,307.467,0.97516
12922,228701.7,314.314,309.216,1.036583
12981,229746,316.052,310.964,1.084803
13040,230790.3,317.794,312.705,1.103961
13099,231834.6,319.211,314.434,1.15577
13158,232878.9,319.159,315.724,1.092603
13217,233923.2,319.153,316.544,1.080109
13276,234967.5,319.152,317.065,1.071419
13335,236011.8,319.147,317.391,1.055631
13394,237056.1,319.151,317.593,1.056994
13453,238100.4,319.163,317.727,1.060942
13512,239144.7,319.151,317.825,1.072511
13571,240189,319.15,317.889,1.060311
13630,241233.3,319.141,317.912,1.031267
13689,242277.6,319.162,317.925,1.023157
13748,243321.9,319.157,317.952,1.042206
13807,244366.2,319.16,317.975,1.037632
13866,245410.5,319.152,318,1.042338
13925,246454.8,319.164,318.022,1.054977
13984,247499.1,319.164,318.055,1.070307
14043,248543.4,319.162,318.091,1.078041
14102,249587.7,319.16,318.125,1.078352
14161,250632,319.151,318.154,1.071749
14220,251676.3,319.15,318.174,1.059249
14279,252720.6,319.151,318.184,1.078475
14338,253764.9,319.153,318.19,1.096523
14397,254809.2,319.149,318.197,1.113221
14456,255853.5,319.15,318.2,1.118112
14515,256897.8,319.148,318.201,1.105119
14574,257942.1,319.15,318.202,1.094995
14633,258986.4,319.149,318.203,1.083859
14692,260030.7,319.152,318.206,1.100054
14751,261075,319.151,318.209,1.1068
14810,262119.3,319.151,318.211,1.116247
14869,263163.6,319.152,318.215,1.112026
14928,264207.9,319.147,318.217,1.110843
14956,264703.5,319.146,318.217,1.120629

File: H2O-NH3_2.84wt%_1ml.csv
"H2O-NH3 2.84wt% Specific Heat - Low HF, 1mL",,,,
Creation Date : 9/22/2022 11:21:05 AM,,,,
User : admin,,,,
,,,,
HeatFlow :,,,,
 Initial Mass : 964.2 mg,,,,
 Molar Mass : 17 g/mol,,,,
,,,,
Index,Time(s),Furnace Temperature(K),Sample Temperature(K),HeatFlow(mW)
1,0,299.128,299.179,5.359686
59,1026.6,298.898,299.148,0.177896
117,2053.2,296.305,298.737,1.557733
175,3079.8,289.083,296.611,8.583275
233,4106.4,281.056,292.491,16.8689
291,5133,273.454,287.111,22.2678
349,6159.6,266.468,281.098,25.0181
407,7186.2,260.088,274.915,26.4427
465,8212.8,254.24,268.831,26.3608
523,9239.4,248.704,262.944,26.002
581,10266,243.422,257.278,25.5
639,11292.6,238.376,251.862,53.9647
697,12319.2,233.47,246.617,23.4943
755,13345.8,228.748,241.554,18.74669
813,14372.4,224.286,236.693,15.9284
871,15399,220.004,232.031,13.8405
929,16425.6,215.781,227.539,12.839
987,17452.2,211.739,223.194,10.75997
1045,18478.8,207.836,219,9.846043
1103,19505.4,204.093,214.958,8.903475
1161,20532,200.47,211.054,8.067272
1219,21558.6,196.992,207.287,7.752815
1277,22585.2,193.68,203.66,6.884978
1335,23611.8,190.469,200.168,6.198121
1393,24638.4,187.361,196.799,5.799866
1451,25665,184.363,193.545,5.386659
1509,26691.6,181.558,190.415,5.101338
1567,27718.2,178.87,187.417,4.753477
1625,28744.8,176.273,184.54,4.835331
1683,29771.4,173.757,181.773,4.348227
1741,30798,171.312,179.103,3.821585
1799,31824.6,168.93,176.52,3.513144
1857,32851.2,166.625,174.017,3.478337
1915,33877.8,164.408,171.595,3.38849
1973,34904.4,162.25,169.251,3.251603
2031,35931,160.091,166.971,3.394419
2089,36957.6,157.964,164.736,2.935289
2147,37984.2,155.917,162.55,3.054073
2205,39010.8,154,160.43,3.265913
2263,40037.4,152.121,158.387,3.064045
2321,41064,150.098,156.367,3.114639
2379,42090.6,148.14,154.364,2.858015
2437,43117.2,146.255,152.389,3.125188
2495,44143.8,144.446,150.454,2.723779
2553,45170.4,142.732,148.572,2.88649
2611,46197,141.089,146.753,2.664489
2669,47223.6,139.537,144.996,2.479124
2727,48250.2,138.048,143.314,2.340622
2785,49276.8,136.576,141.691,2.525234
2843,50303.4,135.097,140.111,2.572609
2901,51330,133.717,138.573,2.066255
2959,52356.6,132.405,137.09,2.122246
3017,53383.2,131.155,135.665,2.004783
3075,54409.8,129.945,134.295,1.867228
3133,55436.4,128.769,132.97,1.750381
3191,56463,127.657,131.701,1.77499
3249,57489.6,126.5,130.474,1.649936
3307,58516.2,125.384,129.273,1.516945
3365,59542.8,124.378,128.107,1.543396
3423,60569.4,123.377,126.989,1.440751
3481,61596,122.428,125.904,1.266632
3539,62622.6,121.463,124.858,1.373583
3597,63649.2,120.605,123.853,1.138547
3655,64675.8,119.72,122.887,1.072613
3713,65702.4,118.731,121.926,1.199069
3771,66729,117.925,120.983,1.24474
3829,67755.6,117.176,120.087,1.156727
3887,68782.2,116.447,119.237,1.097362
3945,69808.8,115.774,118.424,1.053306
4003,70835.4,114.95,117.626,1.054962
4061,71862,114.381,116.857,1.012937
4119,72888.6,113.718,116.138,0.946114
4177,73915.2,113.114,115.437,0.962622
4235,74941.8,112.479,114.752,0.957428
4293,75968.4,111.895,114.089,0.975273
4351,76995,111.308,113.45,0.969949
4409,78021.6,110.801,112.843,0.902867
4467,79048.2,110.287,112.257,0.888608
4525,80074.8,109.676,111.676,0.872109
4583,81101.4,109.24,111.112,0.831279
4641,82128,108.715,110.573,0.814458
4699,83154.6,108.319,110.051,0.769424
4757,84181.2,107.8702,109.561,0.745009
4815,85207.8,107.441,109.078,0.717471
4873,86234.4,107.257,108.651,0.605496
4931,87261,107.164,108.302,0.483309
4989,88287.6,106.896,108,0.446684
5047,89314.2,106.859,107.734,0.373258
5105,90340.8,106.798,107.538,0.278191
5163,91367.4,106.614,107.354,0.281416
5221,92394,106.42,107.17,0.276815
5279,93420.6,106.151,106.97,0.314631
5337,94447.2,105.999,106.775,0.29139
5395,95473.8,105.881,106.582,0.269715
5453,96500.4,105.826,106.435,0.219162
5511,97527,105.814,106.307,0.174258
5569,98553.6,105.698,106.205,0.170756
5627,99580.2,105.635,106.1,0.154578
5685,100606.8,105.655,106.019,0.114177
5743,101633.4,105.645,105.963,0.089372
5801,102660,105.682,105.926,0.056087
5859,103686.6,105.733,105.911,0.032223
5917,104713.2,107.655,106.11,-0.530074
5975,105739.8,109.352,106.784,-1.092984
6033,106766.4,111.075,107.7367,-1.474813
6091,107793,112.789,108.897,-1.766638
6149,108819.6,114.502,110.205,-1.975791
6207,109846.2,116.215,111.62,-2.139302
6265,110872.8,117.926,113.112,-2.260656
6323,111899.4,119.638,114.658,-2.366557
6381,112926,121.353,116.242,-2.452336
6439,113952.6,123.06,117.855,-2.527348
6497,114979.2,124.759,119.489,-2.637919
6555,116005.8,126.484,121.135,-2.755578
6613,117032.4,128.188,122.794,-2.734988
6671,118059,129.914,124.463,-2.731265
6729,119085.6,131.616,126.137,-2.734629
6787,120112.2,133.329,127.815,-2.751849
6845,121138.8,135.053,129.497,-2.766628
6903,122165.4,136.746,131.19,-2.772424
6961,123192,138.461,132.877,-2.777514
7019,124218.6,140.177,134.572,-2.801737
7077,125245.2,141.871,136.267,-2.805661
7135,126271.8,143.594,137.959,-2.816743
7193,127298.4,145.315,139.657,-2.841699
7251,128325,147.015,141.355,-2.842861
7309,129351.6,148.72,143.058,-2.843225
7367,130378.2,150.443,144.757,-2.836853
7425,131404.8,152.149,146.46,-2.75425
7483,132431.4,153.863,148.163,-2.495125
7541,133458,155.571,149.871,-1.770653
7599,134484.6,157.284,151.584,-0.440277
7657,135511.2,158.997,153.297,0.632985
7715,136537.8,160.705,155.009,-0.562975
7773,137564.4,162.413,156.719,-2.635345
7831,138591,164.128,158.432,-2.763755
7889,139617.6,165.848,160.147,-2.764288
7947,140644.2,167.553,161.866,-2.817206
8005,141670.8,169.259,163.585,-2.76608
8063,142697.4,170.975,165.299,-2.805666
8121,143724,172.685,167.017,-2.833971
8179,144750.6,174.39,168.736,-2.831303
8237,145777.2,176.102,170.452,-3.587464
8295,146803.8,177.821,172.167,0.953853
8353,147830.4,179.527,173.883,-2.801208
8411,148857,181.238,175.6,-3.594948
8469,149883.6,182.951,177.316,-15.579
8527,150910.2,184.662,179.034,-3.090925
8585,151936.8,186.373,180.753,-2.908052
8643,152963.4,188.084,182.473,-3.034407
8701,153990,189.786,184.194,-3.038159
8759,155016.6,191.505,185.912,-3.093326
8817,156043.2,193.216,187.631,-3.019108
8875,157069.8,194.925,189.353,-2.934387
8933,158096.4,196.639,191.074,-2.979882
8991,159123,198.346,192.797,-2.97372
9049,160149.6,200.056,194.518,-3.032789
9107,161176.2,201.774,196.232,-2.800276
9165,162202.8,203.482,197.948,-2.922959
9223,163229.4,205.191,199.665,-2.803772
9281,164256,206.903,201.379,-2.826704
9339,165282.6,208.612,203.098,-2.936832
9397,166309.2,210.327,204.813,-2.946037
9455,167335.8,212.036,206.529,-2.978465
9513,168362.4,213.756,208.25,-2.887921
9571,169389,215.459,209.974,-3.039418
9629,170415.6,217.178,211.699,-2.793799
9687,171442.2,218.886,213.429,-2.93041
9745,172468.8,220.59,215.156,-2.997504
9803,173495.4,222.303,216.881,-2.914741
9861,174522,224.022,218.608,-3.047963
9919,175548.6,225.729,220.339,-3.022226
9977,176575.2,227.43,222.066,-3.07032
10035,177601.8,229.147,223.789,-2.857276
10093,178628.4,230.864,225.508,-3.402322
10151,179655,232.566,227.232,-3.189762
10209,180681.6,234.276,228.951,-3.237485
10267,181708.2,235.996,230.671,-3.501921
10325,182734.8,237.702,232.392,-3.243916
10383,183761.4,239.414,234.115,-3.427291
10441,184788,241.129,235.837,-3.648844
10499,185814.6,242.83,237.559,-3.683868
10557,186841.2,244.546,239.278,-3.969414
10615,187867.8,246.265,241,-3.962925
10673,188894.4,247.965,242.72,-4.022018
10731,189921,249.684,244.441,-4.592828
10789,190947.6,251.386,246.166,-4.855897
10847,191974.2,253.101,247.884,-5.236123
10905,193000.8,254.814,249.605,-5.657018
10963,194027.4,256.526,251.324,-5.979347
11021,195054,258.236,253.046,-6.752957
11079,196080.6,259.944,254.769,-7.498068
11137,197107.2,261.658,256.485,-8.607444
11195,198133.8,263.365,258.209,-10.0927
11253,199160.4,265.074,259.924,-11.7511
11311,200187,266.793,261.643,-14.4904
11369,201213.6,268.497,263.358,-18.41158
11427,202240.2,270.22,265.075,-24.4688
11485,203266.8,271.921,266.797,-33.9556
11543,204293.4,273.63,268.511,-49.0435
11601,205320,275.342,270.221,-61.9883
11659,206346.6,277.055,271.934,-36.84585
11717,207373.2,278.766,273.655,-6.544469
11775,208399.8,280.48,275.377,-6.055428
11833,209426.4,282.191,277.096,-6.009888
11891,210453,283.901,278.818,-6.025065
11949,211479.6,285.609,280.537,-5.984474
12007,212506.2,287.323,282.255,-6.012579
12065,213532.8,289.034,283.974,-6.015256
12123,214559.4,290.74,285.687,-5.9986
12181,215586,292.451,287.396,-5.937728
12239,216612.6,294.164,289.103,-5.892396
12297,217639.2,295.869,290.811,-5.867544
12355,218665.8,297.584,292.511,-5.79394
12413,219692.4,299.292,294.201,-5.76252
12471,220719,301.009,295.895,-5.747768
12529,221745.6,302.716,297.61,-5.792089
12587,222772.2,304.437,299.324,-5.770968
12645,223798.8,306.132,301.037,-5.757166
12703,224825.4,307.853,302.741,-5.708931
12761,225852,309.566,304.446,-5.66986
12819,226878.6,311.274,306.155,-5.657735
12877,227905.2,312.982,307.863,-5.635809
12935,228931.8,314.693,309.573,-5.603801
12993,229958.4,316.407,311.281,-5.581575
13051,230985,318.122,312.992,-5.553613
13109,232011.6,319.195,314.656,-5.403865
13167,233038.2,319.159,315.843,-3.469004
13225,234064.8,319.154,316.603,-1.741071
13283,235091.4,319.148,317.091,-0.611893
13341,236118,319.152,317.396,0.136614
13399,237144.6,319.153,317.587,0.62271
13457,238171.2,319.157,317.706,0.926603
13515,239197.8,319.13,317.777,1.098922
13573,240224.4,319.144,317.804,1.302548
13631,241251,319.146,317.816,1.369325
13689,242277.6,319.144,317.814,1.405211
13747,243304.2,319.154,317.814,1.372353
13805,244330.8,319.149,317.823,1.337386
13863,245357.4,319.156,317.803,1.426837
13921,246384,319.157,317.8,1.356997
13979,247410.6,319.15,317.791,1.368303
14037,248437.2,319.138,317.787,1.324398
14095,249463.8,319.145,317.788,1.304116
14153,250490.4,319.163,317.771,1.384502
14211,251517,319.157,317.771,1.322366
14269,252543.6,319.129,317.778,1.267384
14327,253570.2,319.141,317.77,1.323779
14385,254596.8,319.151,317.764,1.327571
14443,255623.4,319.156,317.773,1.297346
14501,256650,319.143,317.789,1.273922
14559,257676.6,319.146,317.804,1.276406
14617,258703.2,319.166,317.818,1.258369
14675,259729.8,319.172,317.855,1.241313
14733,260756.4,319.164,317.894,1.239095
14791,261783,319.161,317.933,1.256464
14816,262225.5,319.158,317.947,1.263707