Folder: NH3_Calorimetry/i_data/water_tests/archive

Note: README.md
# <u>Calorimetry Analysis</u>
*Repository for analysis specific heat capacity analysis of the calorimetry data of H2O-NH3 systems*

Folder Structure:
- **i_data**: all experimental data
  - **26C**: data with T range up to 26 C (299.15 K)
  - **46C**: data with T range up to 26 C (299.15 K)
  - **calibration_ice**: data for calibration of calorimeter
- **i_data_literature**: all literature data
  - **lit_cp**: past NH3-H2O specific heat measurements
- **i_data_processed**: processed experimental data
  - **not_smoothed**: data that has not undergone average smoothing (used for plotting)
- **o_finalPlots**: plots used in the manuscript
- **o_supplementaryPlots**: plots used in the supplementary information
- **z_scripts**: all scripts used in analysis
- **z_unorganized_archive**: folders pre-organization.

File: 2014_blank.csv
Blank_run_033114,,,,
Creation Date : 3/2/2023 1:35:40 PM,,,,
User : admin,,,,
,,,,
HeatFlow :,,,,
 Initial Mass : 0 mg,,,,
 Molar Mass : N/A,,,,
,,,,
Index,Time(s),Furnace Temperature(K),Sample Temperature(K),HeatFlow(mW)
1,0,293.168,291.707,106.1
60,932.2,273.189,288.27,2.638112
119,1864.4,262.607,281.672,1.353154
178,2796.6,254.325,274.342,2.237176
237,3728.8,247.02,267.003,3.020997
296,4661,239.922,259.796,3.644939
355,5593.2,232.978,252.756,3.976581
414,6525.4,226.533,245.926,4.414616
473,7457.6,220.6,239.37,4.809704
532,8389.8,214.94,233.086,5.193765
591,9322,210.089,227.22,5.22386
650,10254.2,205.364,221.721,5.933442
709,11186.4,200.825,216.52,5.628001
768,12118.6,196.279,211.535,6.618905
827,13050.8,192.188,206.794,5.237113
886,13983,188.52,202.34,5.399192
945,14915.2,184.977,198.167,3.573669
1004,15847.4,181.589,194.213,4.135939
1063,16779.6,178.257,190.43,3.472817
1122,17711.8,174.906,186.794,2.34771
1181,18644,171.966,183.323,2.441808
1240,19576.2,169.22,180.046,2.78023
1299,20508.4,166.618,176.944,1.989416
1358,21440.6,164.026,173.974,2.599463
1417,22372.8,161.646,171.156,2.774811
1476,23305,159.147,168.44,2.686401
1535,24237.2,156.958,165.838,3.075146
1594,25169.4,154.752,163.349,2.575586
1653,26101.6,152.582,160.954,2.337344
1712,27033.8,150.614,158.639,2.173175
1771,27966,148.793,156.445,1.924491
1830,28898.2,146.964,154.348,2.010606
1889,29830.4,145.201,152.334,2.125743
1948,30762.6,143.51,150.392,1.708017
2007,31694.8,141.825,148.527,1.667343
2066,32627,140.146,146.708,1.94614
2125,33559.2,138.19,144.901,1.65476
2184,34491.4,136.223,143.058,2.153114
2243,35423.6,134.118,141.145,1.775157
2302,36355.8,132.202,139.243,1.924735
2361,37288,130.083,137.312,1.882171
2420,38220.2,127.897,135.328,1.711843
2479,39152.4,125.584,133.258,1.67372
2538,40084.6,123.289,131.157,1.85124
2597,41016.8,121.131,129.038,1.591235
2656,41949,119.025,126.895,1.355399
2715,42881.2,116.884,124.771,1.475252
2774,43813.4,115.368,122.718,1.560736
2833,44745.6,113.781,120.8,1.135121
2892,45677.8,112.247,118.961,1.198225
2951,46610,110.643,117.176,1.256358
3010,47542.2,109.329,115.489,1.02833
3069,48474.4,108.03,113.885,0.803952
3128,49406.6,106.659,112.336,0.776449
3187,50338.8,105.562,110.866,0.873769
3246,51271,104.27,109.474,0.619532
3305,52203.2,103.118,108.119,0.690212
3364,53135.4,101.943,106.794,0.603533
3423,54067.6,101.039,105.548,0.555984
3482,54999.8,100.006,104.36,0.520615
3541,55932,99.3143,103.254,0.349942
3600,56864.2,98.4289,102.227,0.313884
3659,57796.4,97.8001,101.262,0.233459
3718,58728.6,97.2333,100.39,0.082188
3777,59660.8,96.65473,99.5842,-0.019927
3836,60593,96.1858,98.8468,-0.060157
3895,61525.2,95.5589,98.158,-0.087866
3954,62457.4,95.1328,97.5078,-0.128246
4013,63389.6,94.5956,96.9034,-0.200821
4072,64321.8,94.10105,96.315,-0.199434
4131,65254,93.6811,95.7615,-0.249649
4190,66186.2,93.1408,95.2177,-0.252623
4249,67118.4,92.6029,94.6833,-0.269006
4308,68050.6,92.2123,94.1593,-0.290483
4367,68982.8,91.8266,93.6737,-0.327006
4426,69915,91.3668,93.20011,-0.350239
4485,70847.2,90.8144,92.72225,-0.320925
4544,71779.4,90.2114,92.2127,-0.306589
4603,72711.6,89.6145,91.6852,-0.271506
4662,73643.8,89.0452,91.1373,-0.264178
4721,74576,88.6013,90.6066,-0.291527
4780,75508.2,88.1081,90.084,-0.3011
4839,76440.4,87.7818,89.5918,-0.332503
4898,77372.6,87.5348,89.1522,-0.404514
4957,78304.8,87.3555,88.7691,-0.454515
5016,79237,87.1412,88.4382,-0.506883
5075,80169.2,86.9169,88.1256,-0.494203
5134,81101.4,86.6725,87.835,-0.520479
5193,82033.6,86.56069,87.574,-0.54524
5252,82965.8,86.55,87.3475,-0.555562
5311,83898,88.6272,87.4477,-0.82929
5370,84830.2,90.1714,87.9429,-0.92104
5429,85762.4,91.7382,88.6991,-1.012267
5488,86694.6,93.294,89.6535,-1.067509
5547,87626.8,94.8306,90.752,-1.108891
5606,88559,96.3954,91.9571,-1.143257
5665,89491.2,97.96311,93.2359,-1.167195
5724,90423.4,99.5065,94.5778,-1.1801
5783,91355.6,101.069,95.9627,-1.183621
5842,92287.8,102.622,97.3826,-1.189552
5901,93220,104.159,98.82421,-1.20916
5960,94152.2,105.74,100.279,-1.188306
6019,95084.4,107.277,101.757,-1.197697
6078,96016.6,108.845,103.236,-1.205314
6137,96948.8,110.399,104.738,-1.20553
6196,97881,111.957,106.242,-1.213821
6255,98813.2,113.486,107.752,-1.199214
6314,99745.4,115.057,109.271,-1.192467
6373,100677.6,116.622,110.799,-1.207236
6432,101609.8,118.172,112.338,-1.203957
6491,102542,119.724,113.885,-1.201092
6550,103474.2,121.276,115.431,-1.186428
6609,104406.4,122.809,116.97,-1.157434
6668,105338.6,124.373,118.515,-1.162208
6727,106270.8,125.931,120.059,-1.153648
6786,107203,127.491,121.601,-1.147952
6845,108135.2,129.042,123.145,-1.147282
6904,109067.4,130.596,124.695,-1.136817
6963,109999.6,132.148,126.245,-1.120783
7022,110931.8,133.699,127.799,-1.112299
7081,111864,135.248,129.349,-1.119152
7140,112796.2,136.806,130.894,-1.109161
7199,113728.4,138.357,132.444,-1.09833
7258,114660.6,139.904,133.99,-1.081924
7317,115592.8,141.464,135.538,-1.085703
7376,116525,143.02,137.085,-1.072192
7435,117457.2,144.569,138.63,-1.070694
7494,118389.4,146.12,140.175,-1.062593
7553,119321.6,147.673,141.718,-1.062383
7612,120253.8,149.232,143.264,-1.068076
7671,121186,150.788,144.814,-1.094657
7730,122118.2,152.341,146.366,-1.157917
7789,123050.4,153.902,147.919,-1.216083
7848,123982.6,155.449,149.469,-1.185251
7907,124914.8,156.991,151.019,-1.039698
7966,125847,158.532,152.566,-0.984733
8025,126779.2,160.116,154.111,-0.965833
8084,127711.4,161.655,155.659,-0.954904
8143,128643.6,163.207,157.203,-0.933017
8202,129575.8,164.75,158.739,-0.908906
8261,130508,166.303,160.271,-0.902094
8320,131440.2,167.819,161.795,-0.894753
8379,132372.4,169.435,163.306,-0.858834
8438,133304.6,170.994,164.825,-0.855884
8497,134236.8,172.541,166.353,-0.829156
8556,135169,174.073,167.887,-0.791158
8615,136101.2,175.622,169.422,-0.769502
8674,137033.4,177.196,170.963,-0.690716
8733,137965.6,178.767,172.503,-0.652279
8792,138897.8,180.316,174.052,-0.591813
8851,139830,181.873,175.606,-0.564585
8910,140762.2,183.413,177.157,-0.631677
8969,141694.4,184.975,178.718,-0.69126
9028,142626.6,186.528,180.283,-0.659003
9087,143558.8,188.077,181.843,-0.620641
9146,144491,189.617,183.396,-0.609011
9205,145423.2,191.188,184.956,-0.601591
9264,146355.4,192.734,186.515,-0.568052
9323,147287.6,194.284,188.068,-0.520248
9382,148219.8,195.837,189.626,-0.574066
9441,149152,197.395,191.18,-0.550495
9500,150084.2,198.937,192.73,-0.519653
9559,151016.4,200.499,194.287,-0.488909
9618,151948.6,202.048,195.833,-0.450202
9677,152880.8,203.581,197.386,-0.46734
9736,153813,205.186,198.933,-0.463821
9795,154745.2,206.706,200.495,-0.443164
9854,155677.4,208.24,202.045,-0.464243
9913,156609.6,209.839,203.593,-0.442404
9972,157541.8,211.39,205.147,-0.38464
10031,158474,212.936,206.706,-0.439107
10090,159406.2,214.474,208.267,-0.355247
10149,160338.4,216.047,209.828,-0.395669
10208,161270.6,217.611,211.392,-0.409973
10267,162202.8,219.156,212.954,-0.43229
10326,163135,220.696,214.518,-0.414464
10385,164067.2,222.26,216.07,-0.414857
10444,164999.4,223.812,217.631,-0.430702
10503,165931.6,225.371,219.193,-0.427163
10562,166863.8,226.921,220.752,-0.410085
10621,167796,228.471,222.312,-0.442459
10680,168728.2,230.037,223.88,-0.403123
10739,169660.4,231.573,225.451,-0.358892
10798,170592.6,233.129,227.021,-0.355935
10857,171524.8,234.691,228.594,-0.360258
10916,172457,236.256,230.167,-0.386996
10975,173389.2,237.797,231.738,-0.384209
11034,174321.4,239.357,233.315,-0.355958
11093,175253.6,240.899,234.892,-0.366492
11152,176185.8,242.444,236.467,-0.393299
11211,177118,244.016,238.039,-0.385351
11270,178050.2,245.54,239.615,-0.401335
11329,178982.4,247.122,241.183,-0.417803
11388,179914.6,248.682,242.75,-0.427515
11447,180846.8,250.233,244.321,-0.446243
11506,181779,251.78,245.906,-0.44275
11565,182711.2,253.316,247.476,-0.460994
11624,183643.4,254.878,249.041,-0.48594
11683,184575.6,256.444,250.61,-0.506928
11742,185507.8,258.021,252.197,-0.53218
11801,186440,259.569,253.799,-0.494391
11860,187372.2,261.12,255.412,-0.512124
11919,188304.4,262.659,257.02,-0.548055
11978,189236.6,264.187,258.612,-0.570307
12037,190168.8,265.77,260.181,-0.612466
12096,191101,267.296,261.753,-0.580648
12155,192033.2,268.883,263.318,-0.580174
12214,192965.4,270.429,264.892,-0.595977
12273,193897.6,271.978,266.473,-0.618318
12332,194829.8,273.527,268.046,-0.633293
12391,195762,275.069,269.609,-0.660658
12450,196694.2,276.635,271.143,-0.652527
12509,197626.4,278.201,272.698,-0.695515
12568,198558.6,279.732,274.265,-0.668664
12627,199490.8,281.278,275.816,-0.68931
12686,200423,282.83,277.358,-0.6897
12745,201355.2,284.389,278.895,-0.68731
12804,202287.4,285.931,280.431,-0.700002
12863,203219.6,287.53,281.962,-0.652585
12922,204151.8,289.073,283.516,-0.661137
12981,205084,290.622,285.0591,-0.661683
13040,206016.2,292.158,286.61,-0.678397
13099,206948.4,293.22,288.135,-0.552884
13158,207880.6,293.15,289.305,-0.538484
13217,208812.8,293.162,290.105,-0.491116
13276,209745,293.156,290.657,-0.480445
13335,210677.2,293.157,291.02,-0.464525
13394,211609.4,293.15,291.276,-0.455755
13453,212541.6,293.156,291.456,-0.442362
13512,213473.8,293.146,291.563,-0.432463
13571,214406,293.141,291.643,-0.4364
13630,215338.2,293.143,291.692,-0.43534
13689,216270.4,293.131,291.721,-0.417706
13748,217202.6,293.163,291.745,-0.437388
13807,218134.8,293.149,291.765,-0.433579
13866,219067,293.133,291.768,-0.42805
13925,219999.2,293.143,291.764,-0.437898
13984,220931.4,293.16,291.752,-0.421493
14043,221863.6,293.159,291.746,-0.422359
14102,222795.8,293.154,291.744,-0.421151
14161,223728,293.147,291.738,-0.426854
14220,224660.2,293.154,291.736,-0.427028
14279,225592.4,293.147,291.734,-0.424437
14338,226524.6,293.145,291.738,-0.430827
14397,227456.8,293.141,291.743,-0.43238
14456,228389,293.176,291.75,-0.417002
14515,229321.2,293.151,291.772,-0.442213
14574,230253.4,293.149,291.7713,-0.431157
14633,231185.6,293.143,291.755,-0.42961
14692,232117.8,293.16,291.749,-0.423222
14751,233050,293.16,291.751,-0.41562
14810,233982.2,293.16,291.752,-0.42512
14869,234914.4,293.158,291.748,-0.425986
14928,235846.6,293.153,291.741,-0.433762
14975,236589.2,293.156,291.742,-0.438081

File: H2O-NH3_0.19g.csv
HeatFlow :,,,,
 Initial Mass : 190 mg,,,,
 Molar Mass : N/A,,,,
,,,,
Baseline :,,,,
 Initial Mass : 190 mg,,,,
 Molar Mass : N/A,,,,
,,,,
Index,Time(s),Furnace Temperature(K),Sample Temperature(K),HeatFlow(mW)
1,0,293.196,292.184,60.3502
59,916.4,279.055,289.872,10.9566
117,1832.8,270.008,284.974,1.58986
175,2749.2,262.436,279.114,2.41912
233,3665.6,255.483,272.904,3.196069
291,4582,248.948,266.61,3.858722
349,5498.4,242.765,260.377,19.8754
407,6414.8,236.968,254.293,4.328028
465,7331.2,231.259,248.375,3.215991
523,8247.6,225.976,242.651,3.253393
581,9164,220.618,237.099,3.751421
639,10080.4,215.408,231.679,2.823473
697,10996.8,210.477,226.417,2.958071
755,11913.2,205.797,221.339,2.324981
813,12829.6,201.316,216.454,2.370394
871,13746,196.683,211.715,1.248484
929,14662.4,191.78,206.997,0.927799
987,15578.8,186.99,202.292,0.902718
1045,16495.2,182.024,197.57,3.142451
1103,17411.6,177.058,192.853,1.369367
1161,18328,172.266,188.149,2.420619
1219,19244.4,167.576,183.466,3.102065
1277,20160.8,162.711,178.804,3.553364
1335,21077.2,158.525,174.217,3.4946
1393,21993.6,154.497,169.798,2.976211
1451,22910,150.339,165.506,3.42526
1509,23826.4,146.55,161.311,4.000264
1567,24742.8,142.922,157.276,4.108987
1625,25659.2,138.981,153.32,3.833024
1683,26575.6,135.286,149.437,4.412169
1741,27492,131.345,145.612,4.283068
1799,28408.4,127.56,141.78,4.154191
1857,29324.8,123.978,138.018,4.643712
1915,30241.2,120.725,134.362,4.823652
1973,31157.6,117.592,130.818,4.357823
2031,32074,114.672,127.417,4.5382
2089,32990.4,112.163,124.176,4.375894
2147,33906.8,109.761,121.121,4.096905
2205,34823.2,107.513,118.247,3.931663
2263,35739.6,105.316,115.514,3.67622
2321,36656,103.22,112.926,3.665562
2379,37572.4,101.324,110.461,3.586627
2437,38488.8,99.6262,108.15,3.285652
2495,39405.2,98.1469,106.008,2.758501
2553,40321.6,96.69068,104.014,2.516977
2611,41238,95.4406,102.17,2.230784
2669,42154.4,94.2477,100.465,2.055252
2727,43070.8,93.1695,98.8976,1.623567
2785,43987.2,92.0976,97.4363,1.535877
2843,44903.6,91.2251,96.08811,1.340152
2901,45820,90.3375,94.8559,1.046979
2959,46736.4,89.4814,93.7003,0.960999
3017,47652.8,88.77471,92.6361,0.87917
3075,48569.2,88.0927,91.6574,0.696795
3133,49485.6,87.4508,90.7544,0.737817
3191,50402,86.9264,89.926,0.560359
3249,51318.4,86.4961,89.184,0.475177
3307,52234.8,86.0106,88.5131,0.427583
3365,53151.2,85.6119,87.8937,0.402147
3423,54067.6,85.2285,87.3323,0.345468
3481,54984,84.91178,86.8222,0.383847
3539,55900.4,84.6138,86.36489,0.368174
3597,56816.8,84.2669,85.9378,0.355944
3655,57733.2,84.0223,85.5423,0.313165
3713,58649.6,83.8245,85.1917,0.275928
3771,59566,83.5578,84.8711,0.269807
3829,60482.4,83.3285,84.5682,0.265699
3887,61398.8,83.12612,84.2842,0.261097
3945,62315.2,82.932,84.0251,0.250411
4003,63231.6,82.7773,83.7851,0.240639
4061,64148,82.589,83.5644,0.242781
4119,65064.4,82.4575,83.3563,0.228815
4177,65980.8,82.3504,83.17095,0.217592
4235,66897.2,82.2277,83.0051,0.207521
4293,67813.6,82.1428,82.8529,0.201521
4351,68730,82.0569,82.7181,0.192487
4409,69646.4,81.9577,82.5936,0.201691
4467,70562.8,81.8637,82.4777,0.188851
4525,71479.2,81.8058,82.3693,0.181437
4583,72395.6,81.7606,82.2754,0.176052
4641,73312,81.6861,82.19306,0.170235
4699,74228.4,81.6366,82.1119,0.167736
4757,75144.8,81.6227,82.04447,0.171006
4815,76061.2,81.5788,81.9893,0.182073
4873,76977.6,81.552,81.9352,0.166633
4931,77894,81.5373,81.8909,0.170386
4989,78810.4,81.5164,81.8548,0.154893
5047,79726.8,81.4847,81.8175,0.163148
5105,80643.2,83.1812,81.9494,-0.038109
5163,81559.6,84.7091,82.49,-0.226273
5221,82476,86.2525,83.2803,-0.351105
5279,83392.4,87.7801,84.2549,-0.43865
5337,84308.8,89.3087,85.3645,-0.502014
5395,85225.2,90.84162,86.5676,-0.560056
5453,86141.6,92.3639,87.8431,-0.599099
5511,87058,93.898,89.1687,-0.627223
5569,87974.4,95.4243,90.5302,-0.655465
5627,88890.8,96.9479,91.9224,-0.677522
5685,89807.2,98.4885,93.3334,-0.695319
5743,90723.6,100.013,94.7613,-0.703923
5801,91640,101.535,96.1972,-0.719361
5859,92556.4,103.076,97.6501,-0.728656
5917,93472.8,104.599,99.1061,-0.735316
5975,94389.2,106.119,100.571,-0.744315
6033,95305.6,107.651,102.039,-0.752154
6091,96222,109.185,103.51,-0.756049
6149,97138.4,110.696,104.985,-0.757595
6207,98054.8,112.241,106.466,-0.769066
6265,98971.2,113.76,107.946,-0.772188
6323,99887.6,115.285,109.434,-0.778167
6381,100804,116.82,110.922,-0.780311
6439,101720.4,118.345,112.41,-0.772822
6497,102636.8,119.857,113.904,-0.786154
6555,103553.2,121.411,115.398,-0.781745
6613,104469.6,122.921,116.895,-0.786533
6671,105386,124.443,118.396,-0.786836
6729,106302.4,125.981,119.897,-0.788719
6787,107218.8,127.517,121.395,-0.780949
6845,108135.2,129.044,122.901,-0.787147
6903,109051.6,130.547,124.407,-0.790187
6961,109968,132.089,125.913,-0.777196
7019,110884.4,133.628,127.421,-0.781394
7077,111800.8,135.133,128.933,-0.787523
7135,112717.2,136.676,130.437,-0.772239
7193,113633.6,138.182,131.947,-0.779112
7251,114550,139.73,133.461,-0.773816
7309,115466.4,141.259,134.97,-0.761545
7367,116382.8,142.755,136.487,-0.764005
7425,117299.2,144.314,138.002,-0.745518
7483,118215.6,145.839,139.519,-0.7441
7541,119132,147.341,141.037,-0.740119
7599,120048.4,148.896,142.559,-0.717584
7657,120964.8,150.416,144.082,-0.714966
7715,121881.2,151.952,145.603,-0.692826
7773,122797.6,153.453,147.127,-0.678883
7831,123714,155,148.651,-0.648055
7889,124630.4,156.517,150.176,-0.625348
7947,125546.8,158.058,151.697,-0.60027
8005,126463.2,159.572,153.221,-0.563799
8063,127379.6,161.103,154.75,-0.532805
8121,128296,162.646,156.276,-0.497256
8179,129212.4,164.161,157.804,-0.46814
8237,130128.8,165.703,159.335,-0.407634
8295,131045.2,167.204,160.867,-0.386576
8353,131961.6,168.76,162.393,-0.344275
8411,132878,170.281,163.924,-0.338346
8469,133794.4,171.789,165.454,-0.302143
8527,134710.8,173.331,166.985,-0.284119
8585,135627.2,174.867,168.513,-0.249248
8643,136543.6,176.397,170.047,-0.247516
8701,137460,177.899,171.575,-0.181066
8759,138376.4,179.423,173.108,-0.15797
8817,139292.8,180.978,174.638,-0.104148
8875,140209.2,182.499,176.169,-0.036569
8933,141125.6,184.006,177.701,-0.007403
8991,142042,185.534,179.234,0.004064
9049,142958.4,187.085,180.764,-0.042767
9107,143874.8,188.609,182.296,0.030314
9165,144791.2,190.124,183.827,0.012412
9223,145707.6,191.639,185.358,0.056448
9281,146624,193.184,186.8897,0.039365
9339,147540.4,194.717,188.422,0.123777
9397,148456.8,196.249,189.953,0.035054
9455,149373.2,197.748,191.483,0.09053
9513,150289.6,199.288,193.015,0.10467
9571,151206,200.831,194.547,0.10181
9629,152122.4,202.355,196.079,0.116944
9687,153038.8,203.869,197.614,0.125798
9745,153955.2,205.39,199.146,0.072865
9803,154871.6,206.944,200.678,0.142013
9861,155788,208.459,202.212,0.116349
9919,156704.4,209.988,203.746,0.18603
9977,157620.8,211.499,205.28,0.120871
10035,158537.2,213.047,206.811,0.078133
10093,159453.6,214.578,208.343,0.087523
10151,160370,216.088,209.872,0.018257
10209,161286.4,217.617,211.406,0.082243
10267,162202.8,219.16,212.94,0.019315
10325,163119.2,220.686,214.474,0.015675
10383,164035.6,222.203,216.005,0.05247
10441,164952,223.723,217.54,0.087378
10499,165868.4,225.261,219.073,0.067739
10557,166784.8,226.799,220.605,0.072726
10615,167701.2,228.318,222.139,0.023383
10673,168617.6,229.831,223.675,0.207752
10731,169534,231.366,225.211,-0.006833
10789,170450.4,232.894,226.748,-0.01424
10847,171366.8,234.414,228.285,-0.040083
10905,172283.2,235.958,229.816,-0.092535
10963,173199.6,237.482,231.352,-0.106602
11021,174116,238.999,232.891,-0.106313
11079,175032.4,240.531,234.429,-0.092013
11137,175948.8,242.071,235.97,-0.08354
11195,176865.2,243.578,237.513,-0.106636
11253,177781.6,245.101,239.049,-0.169334
11311,178698,246.65,240.581,-0.15757
11369,179614.4,248.173,242.118,-0.180334
11427,180530.8,249.692,243.659,-0.194354
11485,181447.2,251.221,245.199,-0.17286
11543,182363.6,252.759,246.736,-0.156266
11601,183280,254.281,248.271,-0.179312
11659,184196.4,255.801,249.81,-0.169532
11717,185112.8,257.333,251.348,-0.145229
11775,186029.2,258.853,252.886,-0.121768
11833,186945.6,260.385,254.422,-0.118945
11891,187862,261.918,255.958,-0.101005
11949,188778.4,263.449,257.494,-0.114902
12007,189694.8,264.977,259.034,-0.136409
12065,190611.2,266.501,260.57,-0.144088
12123,191527.6,268.023,262.108,-0.157322
12181,192444,269.557,263.647,-0.159453
12239,193360.4,271.073,265.187,-0.181276
12297,194276.8,272.603,266.725,-0.186456
12355,195193.2,274.126,268.263,-0.203789
12413,196109.6,275.658,269.799,-0.204929
12471,197026,277.189,271.335,-0.230036
12529,197942.4,278.72,272.867,-0.368401
12587,198858.8,280.246,274.398,-53.8803
12645,199775.2,281.774,275.929,-2.764936
12703,200691.6,283.298,277.462,-0.909941
12761,201608,284.822,278.995,-0.856618
12819,202524.4,286.34,280.53,-0.781195
12877,203440.8,287.877,282.061,-0.687577
12935,204357.2,289.412,283.598,-0.607884
12993,205273.6,290.935,285.139,-0.565354
13051,206190,292.465,286.672,-0.561921
13109,207106.4,293.1742,288.139,-0.471331
13167,208022.8,293.155,289.21,-0.317546
13225,208939.2,293.149,289.956,-0.161966
13283,209855.6,293.153,290.474,-0.011924
13341,210772,293.148,290.836,0.08954
13399,211688.4,293.16,291.084,0.148608
13457,212604.8,293.155,291.256,0.193949
13515,213521.2,293.142,291.377,0.22768
13573,214437.6,293.147,291.462,0.258175
13631,215354,293.159,291.518,0.270537
13689,216270.4,293.156,291.558,0.289272
13747,217186.8,293.151,291.583,0.302493
13805,218103.2,293.16,291.605,0.304536
13863,219019.6,293.157,291.62,0.310808
13921,219936,293.149,291.629,0.311836
13979,220852.4,293.154,291.636,0.324849
14037,221768.8,293.156,291.647,0.339144
14095,222685.2,293.149,291.646,0.322214
14153,223601.6,293.143,291.65,0.323537
14211,224518,293.141,291.65,0.323508
14269,225434.4,293.154,291.649,0.329831
14327,226350.8,293.144,291.653,0.325361
14385,227267.2,293.155,291.65,0.329462
14443,228183.6,293.16,291.652,0.333349
14501,229100,293.147,291.648,0.329751
14559,230016.4,293.145,291.649,0.337778
14617,230932.8,293.161,291.651,0.33453
14675,231849.2,293.155,291.651,0.329612
14733,232765.6,293.154,291.649,0.336615
14791,233682,293.144,291.649,0.328829
14849,234598.4,293.141,291.649,0.33483
14907,235514.8,293.155,291.648,0.331329
14965,236431.2,293.147,291.646,0.338902
14975,236589.2,293.148,291.646,0.339847