Folder: NH3_Calorimetry/i_data/water_tests/archive (part 2)

File: H2O-NH3_6.0g.csv
HeatFlow :,,,,
 Initial Mass : 6000 mg,,,,
 Molar Mass : 18 g/mol,,,,
,,,,
Baseline :,,,,
 Initial Mass : 6000 mg,,,,
 Molar Mass : 18 g/mol,,,,
,,,,
Index,Time(s),Furnace Temperature(K),Sample Temperature(K),HeatFlow(mW)
1,0,293.197,291.632,261.897
59,916.4,269.259,287.534,112.124
117,1832.8,256.062,279.601,208.467
175,2749.2,245.788,270.751,247.013
233,3665.6,236.683,261.83,258.677
291,4582,228.208,253.305,1908.17
349,5498.4,220.086,244.872,207.535
407,6414.8,212.067,236.601,111.267
465,7331.2,204.383,228.602,100.782
523,8247.6,197.202,220.906,94.4068
581,9164,190.48,213.543,88.572
639,10080.4,184.178,206.502,82.7764
697,10996.8,178.382,199.836,76.798
755,11913.2,172.676,193.496,70.7142
813,12829.6,167.635,187.477,64.1872
871,13746,163.037,181.83,59.1097
929,14662.4,158.867,176.553,54.2388
987,15578.8,155.255,171.674,49.26181
1045,16495.2,151.632,167.16,44.9156
1103,17411.6,148.143,162.907,40.54409
1161,18328,144.693,158.869,38.6523
1219,19244.4,141.774,155.075,35.3182
1277,20160.8,139.2,151.547,32.0886
1335,21077.2,136.49,148.26,29.5981
1393,21993.6,134.179,145.171,27.3589
1451,22910,132.042,142.292,25.4024
1509,23826.4,130.025,139.628,22.8759
1567,24742.8,128.353,137.158,20.748
1625,25659.2,126.795,134.906,18.6709
1683,26575.6,125.36,132.834,16.8402
1741,27492,124.153,130.953,15.2074
1799,28408.4,123.153,129.248,13.3835
1857,29324.8,122.316,127.743,11.6728
1915,30241.2,121.544,126.406,10.0488
1973,31157.6,120.721,125.193,9.071746
2031,32074,119.828,124.069,8.460902
2089,32990.4,119.008,123.011,7.605642
2147,33906.8,118.248,122.01,7.065384
2205,34823.2,117.506,121.076,6.508678
2263,35739.6,116.66,120.175,6.21463
2321,36656,115.778,119.279,6.147073
2379,37572.4,114.962,118.396,5.961686
2437,38488.8,114.169,117.534,5.946029
2495,39405.2,113.36,116.684,5.642959
2553,40321.6,112.687,115.862,5.549428
2611,41238,112.061,115.074,5.112002
2669,42154.4,111.378,114.325,4.887861
2727,43070.8,110.803,113.603,4.715123
2785,43987.2,110.136,112.899,4.605586
2843,44903.6,109.552,112.218,4.435555
2901,45820,109.002,111.565,4.197232
2959,46736.4,108.477,110.939,4.031637
3017,47652.8,108.002,110.342,3.766949
3075,48569.2,107.554,109.776,3.569609
3133,49485.6,107.108,109.237,3.316799
3191,50402,106.603,108.72,3.142472
3249,51318.4,106.04,108.193,3.195322
3307,52234.8,105.426,107.649,3.373156
3365,53151.2,104.911,107.104,3.253064
3423,54067.6,104.469,106.5754,3.098412
3481,54984,103.998,106.062,3.013958
3539,55900.4,103.451,105.545,3.037085
3597,56816.8,102.929,105.03,2.940505
3655,57733.2,102.418,104.513,2.951873
3713,58649.6,101.833,103.982,3.09956
3771,59566,101.416,103.461,2.895312
3829,60482.4,100.753,102.941,2.960691
3887,61398.8,100.155,102.389,3.113243
3945,62315.2,99.6278,101.828,3.098062
4003,63231.6,98.9397,101.26,3.190868
4061,64148,98.2637,100.67,3.272142
4119,65064.4,97.5997,100.0521,3.415625
4177,65980.8,96.9415,99.4203,3.466038
4235,66897.2,96.3035,98.7904,3.441848
4293,67813.6,95.7469,98.1662,3.338321
4351,68730,95.07276,97.5385,3.377164
4409,69646.4,94.4155,96.9083,3.350553
4467,70562.8,93.8459,96.2733,3.331844
4525,71479.2,93.3305,95.662,3.2001
4583,72395.6,92.9428,95.09162,2.88388
4641,73312,92.4052,94.5493,2.72651
4699,74228.4,91.95809,94.0158,2.635873
4757,75144.8,91.5301,93.5007,2.51045
4815,76061.2,91.0429,93.0069,2.407018
4873,76977.6,90.6237,92.51969,2.306117
4931,77894,90.19805,92.0451,2.277393
4989,78810.4,89.7256,91.5848,2.163953
5047,79726.8,89.3068,91.1194,2.186673
5105,80643.2,88.961,90.6735,2.016319
5163,81559.6,88.58602,90.2541,1.894027
5221,82476,88.2746,89.8509,1.75535
5279,83392.4,87.9388,89.4645,1.680507
5337,84308.8,89.208,89.2018,0.601834
5395,85225.2,90.8226,89.4177,-2.129197
5453,86141.6,92.3654,89.9467,-3.87786
5511,87058,93.8915,90.7209,-5.251606
5569,87974.4,95.4111,91.674,-6.271758
5627,88890.8,96.9587,92.7614,-7.073214
5685,89807.2,98.4744,93.9501,-7.70865
5743,90723.6,100.012,95.2148,-8.206962
5801,91640,101.539,96.5301,-8.589519
5859,92556.4,103.053,97.8904,-8.922078
5917,93472.8,104.603,99.2807,-9.208699
5975,94389.2,106.113,100.693,-9.422432
6033,95305.6,107.656,102.126,-9.682543
6091,96222,109.184,103.575,-9.865003
6149,97138.4,110.702,105.031,-10.04713
6207,98054.8,112.227,106.501,-10.2395
6265,98971.2,113.767,107.972,-10.38964
6323,99887.6,115.273,109.451,-10.51666
6381,100804,116.816,110.935,-10.6937
6439,101720.4,118.353,112.421,-10.77657
6497,102636.8,119.861,113.913,-10.9211
6555,103553.2,121.398,115.411,-11.0454
6613,104469.6,122.926,116.901,-11.0812
6671,105386,124.455,118.404,-11.2559
6729,106302.4,125.981,119.909,-11.3727
6787,107218.8,127.511,121.407,-11.39286
6845,108135.2,129.043,122.915,-11.5698
6903,109051.6,130.543,124.426,-11.6885
6961,109968,132.102,125.931,-11.7414
7019,110884.4,133.603,127.442,-11.8622
7077,111800.8,135.165,128.955,-11.9839
7135,112717.2,136.665,130.472,-12.09391
7193,113633.6,138.214,131.989,-12.2153
7251,114550,139.726,133.505,-12.2869
7309,115466.4,141.2452,135.029,-12.4495
7367,116382.8,142.798,136.551,-12.5272
7425,117299.2,144.297,138.08,-12.6758
7483,118215.6,145.81,139.59,-12.5752
7541,119132,147.354,141.093,-12.6518
7599,120048.4,148.831,142.596,-12.7075
7657,120964.8,150.358,144.089,-12.7554
7715,121881.2,151.938,145.615,-13.0414
7773,122797.6,153.483,147.15,-13.1455
7831,123714,155.011,148.681,-13.0737
7889,124630.4,156.543,150.205,-13.0126
7947,125546.8,158.084,151.726,-13.06265
8005,126463.2,159.602,153.246,-13.1744
8063,127379.6,161.125,154.769,-13.3314
8121,128296,162.64,156.291,-13.427
8179,129212.4,164.176,157.819,-13.6082
8237,130128.8,165.7,159.346,-13.7025
8295,131045.2,167.234,160.883,-13.8026
8353,131961.6,168.76,162.424,-13.9784
8411,132878,170.264,163.97,-14.087
8469,133794.4,171.813,165.505,-14.1068
8527,134710.8,173.322,167.043,-14.1861
8585,135627.2,174.858,168.582,-14.238
8643,136543.6,176.388,170.124,-14.4084
8701,137460,177.921,171.669,-14.4611
8759,138376.4,179.431,173.218,-14.5806
8817,139292.8,180.966,174.761,-14.6388
8875,140209.2,182.502,176.299,-14.7065
8933,141125.6,184.035,177.844,-14.8255
8991,142042,185.546,179.383,-14.82229
9049,142958.4,187.073,180.922,-14.9065
9107,143874.8,188.591,182.463,-15.0864
9165,144791.2,190.123,184.002,-15.1523
9223,145707.6,191.657,185.541,-15.2213
9281,146624,193.193,187.075,-15.2563
9339,147540.4,194.722,188.611,-15.3321
9397,148456.8,196.234,190.142,-15.362
9455,149373.2,197.766,191.674,-15.4336
9513,150289.6,199.29,193.208,-15.613
9571,151206,200.8338,194.749,-15.7827
9629,152122.4,202.342,196.292,-15.9243
9687,153038.8,203.877,197.821,-15.866
9745,153955.2,205.404,199.343,-15.9153
9803,154871.6,206.938,200.873,-16.0876
9861,155788,208.461,202.404,-16.2344
9919,156704.4,209.981,203.929,-16.2879
9977,157620.8,211.497,205.451,-16.3135
10035,158537.2,213.026,206.973,-16.4517
10093,159453.6,214.558,208.496,-16.5788
10151,160370,216.094,210.017,-16.6491
10209,161286.4,217.627,211.54,-16.8182
10267,162202.8,219.149,213.065,-16.9098
10325,163119.2,220.668,214.59,-17.0544
10383,164035.6,222.198,216.117,-17.1926
10441,164952,223.722,217.647,-17.29584
10499,165868.4,225.257,219.177,-17.4678
10557,166784.8,226.788,220.706,-17.5342
10615,167701.2,228.315,222.235,-17.6835
10673,168617.6,229.837,223.767,-17.71414
10731,169534,231.357,225.297,-17.9847
10789,170450.4,232.886,226.829,-18.0954
10847,171366.8,234.428,228.361,-18.1929
10905,172283.2,235.951,229.901,-18.38524
10963,173199.6,237.485,231.44,-18.53236
11021,174116,239.012,232.978,-18.6233
11079,175032.4,240.536,234.516,-18.70863
11137,175948.8,242.055,236.053,-18.8458
11195,176865.2,243.582,237.59,-19.0315
11253,177781.6,245.11,239.122,-19.1005
11311,178698,246.641,240.65,-19.154
11369,179614.4,248.174,242.184,-19.3214
11427,180530.8,249.702,243.719,-19.4327
11485,181447.2,251.225,245.253,-19.5521
11543,182363.6,252.755,246.789,-19.73191
11601,183280,254.294,248.336,-19.9129
11659,184196.4,255.808,249.884,-20.0702
11717,185112.8,257.327,251.425,-20.0976
11775,186029.2,258.851,252.963,-20.1617
11833,186945.6,260.388,254.5,-20.27601
11891,187862,261.91,256.042,-20.4406
11949,188778.4,263.452,257.579,-20.5245
12007,189694.8,264.98,259.119,-20.6787
12065,190611.2,266.503,260.659,-20.8639
12123,191527.6,268.024,262.202,-21.01037
12181,192444,269.549,263.747,-21.2264
12239,193360.4,271.086,265.289,-21.337
12297,194276.8,272.605,266.838,-21.6105
12355,195193.2,274.153,268.39,-21.7889
12413,196109.6,275.682,269.958,-22.1789
12471,197026,277.206,271.533,-22.5455
12529,197942.4,278.728,273.106,-23.2724
12587,198858.8,280.235,274.656,-197.99
12645,199775.2,281.773,276.166,-479.74
12703,200691.6,283.289,277.649,-702.985
12761,201608,284.818,279.119,-761.903
12819,202524.4,286.355,280.638,-262.652
12877,203440.8,287.889,282.2234,-59.2587
12935,204357.2,289.405,283.811,-45.6373
12993,205273.6,290.926,285.378,-44.2255
13051,206190,292.455,286.927,-43.6464
13109,207106.4,293.178,288.412,-42.31187
13167,208022.8,293.165,289.496,-32.3727
13225,208939.2,293.163,290.261,-23.0038
13283,209855.6,293.153,290.796,-16.1167
13341,210772,293.152,291.165,-11.1764
13399,211688.4,293.143,291.417,-7.621384
13457,212604.8,293.148,291.585,-5.099068
13515,213521.2,293.146,291.7,-3.452976
13573,214437.6,293.151,291.778,-2.370485
13631,215354,293.158,291.839,-1.72675
13689,216270.4,293.163,291.887,-1.317148
13747,217186.8,293.151,291.925,-1.067355
13805,218103.2,293.15,291.94,-0.494291
13863,219019.6,293.132,291.944,-0.117959
13921,219936,293.151,291.937,0.200515
13979,220852.4,293.149,291.935,0.109843
14037,221768.8,293.158,291.935,0.083937
14095,222685.2,293.155,291.944,-0.135057
14153,223601.6,293.156,291.949,-0.073573
14211,224518,293.136,291.946,0.065283
14269,225434.4,293.143,291.937,0.269426
14327,226350.8,293.133,291.928,0.223315
14385,227267.2,293.139,291.918,0.312782
14443,228183.6,293.1416,291.905,0.358901
14501,229100,293.164,291.899,0.288954
14559,230016.4,293.153,291.912,-0.224182
14617,230932.8,293.148,291.921,-0.226252
14675,231849.2,293.154,291.933,-0.246111
14733,232765.6,293.148,291.938,-0.132122
14791,233682,293.156,291.941,-0.008635
14849,234598.4,293.155,291.941,0.051294
14907,235514.8,293.155,291.942,0.050949
14965,236431.2,293.154,291.944,-0.000691
14975,236589.2,293.146,291.944,-0.028497