Folder: NH3_Calorimetry/i_data/0.10Kmin/27Sep

Note: README.md
# <u>Calorimetry Analysis</u>
*Repository for analysis specific heat capacity analysis of the calorimetry data of H2O-NH3 systems*

Folder Structure:
- **i_data**: all experimental data
  - **26C**: data with T range up to 26 C (299.15 K)
  - **46C**: data with T range up to 26 C (299.15 K)
  - **calibration_ice**: data for calibration of calorimeter
- **i_data_literature**: all literature data
  - **lit_cp**: past NH3-H2O specific heat measurements
- **i_data_processed**: processed experimental data
  - **not_smoothed**: data that has not undergone average smoothing (used for plotting)
- **o_finalPlots**: plots used in the manuscript
- **o_supplementaryPlots**: plots used in the supplementary information
- **z_scripts**: all scripts used in analysis
- **z_unorganized_archive**: folders pre-organization.

File: H2O-NH3_2.84wt%.csv
H2O-NH3 3.52wt% Specific Heat - Large HF,,,,
Creation Date : 9/6/2022 9:53:12 AM,,,,
User : admin,,,,
,,,,
HeatFlow :,,,,
 Initial Mass : 4840.2 mg,,,,
 Molar Mass : 17 g/mol,,,,
,,,,
Index,Time(s),Furnace Temperature(K),Sample Temperature(K),HeatFlow(mW)
1,0,299.606,299.629,335.999
59,980.2,299.614,299.645,13.9406
117,1960.4,298.893,299.556,1.765411
175,2940.6,295.946,298.9,11.9479
233,3920.8,289.846,296.882,39.3341
291,4901,282.608,293.228,74.0744
349,5881.2,275.544,288.427,99.7856
407,6861.4,268.975,282.972,114.962
465,7841.6,262.759,277.261,121.509
523,8821.8,256.808,271.474,124.091
581,9802,251.285,265.767,123.716
639,10782.2,246.009,260.219,121.168
697,11762.4,240.938,254.908,1312.03
755,12742.6,236.131,249.783,298.967
813,13722.8,231.46,244.755,115.828
871,14703,226.956,239.897,87.3902
929,15683.2,222.656,235.221,73.5606
987,16663.4,218.539,230.726,64.2656
1045,17643.6,214.637,226.419,57.1395
1103,18623.8,210.841,222.284,50.3238
1161,19604,207.175,218.301,45.8087
1219,20584.2,203.485,214.444,42.5884
1277,21564.4,199.876,210.668,39.4696
1335,22544.6,196.469,206.996,37.0786
1393,23524.8,193.165,203.443,34.39016
1451,24505,190.005,200.009,32.6122
1509,25485.2,186.936,196.687,30.6553
1567,26465.4,184.031,193.488,28.8917
1625,27445.6,181.126,190.383,27.1113
1683,28425.8,178.473,187.3898,25.5204
1741,29406,175.892,184.522,24.4685
1799,30386.2,173.279,181.742,23.1739
1857,31366.4,170.78,179.044,22.0164
1915,32346.6,168.352,176.421,21.3473
1973,33326.8,166.077,173.888,20.1469
2031,34307,163.785,171.428,19.2443
2089,35287.2,161.563,169.04,18.4362
2147,36267.4,159.42,166.719,17.9897
2205,37247.6,157.33,164.466,17.40287
2263,38227.8,155.335,162.272,16.8259
2321,39208,153.287,160.135,15.955
2379,40188.2,151.419,158.054,15.4548
2437,41168.4,149.701,156.056,14.6675
2495,42148.6,148.038,154.147,14.1317
2553,43128.8,146.429,152.322,13.2825
2611,44109,144.748,150.548,12.7373
2669,45089.2,143.082,148.797,12.3416
2727,46069.4,141.648,147.109,11.8883
2785,47049.6,140.318,145.508,10.9683
2843,48029.8,138.86,143.968,10.6402
2901,49010,137.58,142.468,10.1785
2959,49990.2,136.233,141.029,9.789219
3017,50970.4,134.867,139.614,9.599074
3075,51950.6,133.584,138.219,9.181731
3133,52930.8,132.377,136.867,9.014811
3191,53911,131.094,135.548,8.608994
3249,54891.2,129.734,134.227,8.580372
3307,55871.4,128.398,132.898,8.501998
3365,56851.6,127.233,131.587,8.331748
3423,57831.8,126.185,130.339,7.746295
3481,58812,125.258,129.162,7.137948
3539,59792.2,124.348,128.052,6.629252
3597,60772.4,123.436,126.992,6.346144
3655,61752.6,122.574,125.979,5.974625
3713,62732.8,121.709,125.0073,5.661355
3771,63713,121.009,124.087,5.294169
3829,64693.2,120.345,123.236,4.830115
3887,65673.4,119.248,122.379,4.908614
3945,66653.6,116.55,121.296,6.672998
4003,67633.8,111.296,119.4,11.9467
4061,68614,106.448,116.656,16.0974
4119,69594.2,103.139,113.556,16.8492
4177,70574.4,100.85,110.533,15.8222
4235,71554.6,99.2973,107.794,13.8981
4293,72534.8,98.4121,105.445,11.2626
4351,73515,97.9485,103.535,9.020422
4409,74495.2,97.6743,102.031,6.827488
4467,75475.4,97.5404,100.877,5.045291
4525,76455.6,97.5836,100.02,3.506746
4583,77435.8,97.8838,99.4457,2.047456
4641,78416,98.252,99.1257,0.859189
4699,79396.2,98.5802,98.9818,0.007469
4757,80376.4,98.8762,98.9625,-0.580608
4815,81356.6,99.1858,99.0179,-0.954664
4873,82336.8,99.59931,99.1645,-1.425633
4931,83317,99.9274,99.368,-1.70232
4989,84297.2,100.208,99.5978,-1.816866
5047,85277.4,100.469,99.8367,-1.850612
5105,86257.6,100.718,100.08,-1.867675
5163,87237.8,100.961,100.323,-1.879638
5221,88218,101.221,100.568,-1.889864
5279,89198.2,101.493,100.819,-1.918999
5337,90178.4,101.756,101.074,-1.95396
5395,91158.6,102.005,101.33,-1.95083
5453,92138.8,102.239,101.581,-1.935165
5511,93119,102.449,101.824,-1.88721
5569,94099.2,102.627,102.054,-1.812183
5627,95079.4,102.789,102.268,-1.709274
5685,96059.6,102.954,102.468,-1.651085
5743,97039.8,103.092,102.657,-1.594551
5801,98020,103.201,102.829,-1.501256
5859,99000.2,103.274,102.978,-1.37662
5917,99980.4,103.336,103.106,-1.266948
5975,100960.6,103.42,103.219,-1.202203
6033,101940.8,103.494,103.325,-1.16548
6091,102921,104.415,103.446,-1.391727
6149,103901.2,106.286,103.987,-3.818988
6207,104881.4,107.928,104.824,-5.314259
6265,105861.6,109.564,105.871,-6.425896
6323,106841.8,111.197,107.067,-7.228824
6381,107822,112.85,108.377,-7.896161
6439,108802.2,114.465,109.77,-8.388674
6497,109782.4,116.115,111.212,-8.743707
6555,110762.6,117.751,112.705,-9.064074
6613,111742.8,119.37,114.233,-9.343002
6671,112723,121.02,115.779,-9.576815
6729,113703.2,122.635,117.345,-9.86371
6787,114683.4,124.289,118.923,-10.2496
6845,115663.6,125.92,120.51,-10.7999
6903,116643.8,127.545,122.108,-11.1831
6961,117624,129.184,123.703,-11.0603
7019,118604.2,130.826,125.312,-11.1972
7077,119584.4,132.442,126.924,-11.2954
7135,120564.6,134.092,128.535,-11.3801
7193,121544.8,135.707,130.152,-11.4757
7251,122525,137.36,131.762,-11.5096
7309,123505.2,138.987,133.38,-11.6334
7367,124485.4,140.613,134.995,-11.6663
7425,125465.6,142.247,136.612,-11.7663
7483,126445.8,143.888,138.233,-11.8788
7541,127426,145.518,139.852,-11.9111
7599,128406.2,147.149,141.476,-12.0387
7657,129386.4,148.79,143.099,-12.0583
7715,130366.6,150.428,144.724,-11.9861
7773,131346.8,152.062,146.353,-11.6326
7831,132327,153.682,147.986,-10.5677
7889,133307.2,155.324,149.62,-7.952013
7947,134287.4,156.952,151.251,-1.988444
8005,135267.6,158.592,152.89,6.848562
8063,136247.8,160.224,154.526,5.620746
8121,137228,161.864,156.159,-7.654046
8179,138208.2,163.496,157.798,-10.7653
8237,139188.4,165.128,159.437,-11.5017
8295,140168.6,166.762,161.074,-11.8837
8353,141148.8,168.396,162.714,-12.0767
8411,142129,170.018,164.355,-12.1222
8469,143109.2,171.656,165.987,-12.1905
8527,144089.4,173.306,167.625,-12.334
8585,145069.6,174.917,169.266,-12.8535
8643,146049.8,176.567,170.905,-24.0521
8701,147030,178.194,172.545,-2.649215
8759,148010.2,179.832,174.187,-12.6449
8817,148990.4,181.459,175.831,-18.2843
8875,149970.6,183.096,177.462,-100.389
8933,150950.8,184.73,179.102,-16.3352
8991,151931,186.362,180.749,-14.4697
9049,152911.2,188.003,182.392,-14.6277
9107,153891.4,189.633,184.042,-14.6608
9165,154871.6,191.263,185.69,-14.86345
9223,155851.8,192.898,187.337,-14.9581
9281,156832,194.53,188.981,-15.1066
9339,157812.2,196.17,190.623,-15.3226
9397,158792.4,197.801,192.267,-15.3027
9455,159772.6,199.432,193.912,-15.265
9513,160752.8,201.065,195.554,-15.6243
9571,161733,202.699,197.198,-15.69128
9629,162713.2,204.332,198.842,-16.0431
9687,163693.4,205.965,200.486,-16.23886
9745,164673.6,207.601,202.13,-16.2298
9803,165653.8,209.234,203.774,-16.5176
9861,166634,210.867,205.418,-16.7263
9919,167614.2,212.502,207.062,-16.7637
9977,168594.4,214.137,208.705,-17.05434
10035,169574.6,215.769,210.35,-17.1237
10093,170554.8,217.402,211.994,-17.5371
10151,171535,219.037,213.636,-17.4729
10209,172515.2,220.67,215.277,-17.77717
10267,173495.4,222.302,216.921,-18.2826
10325,174475.6,223.937,218.562,-18.2557
10383,175455.8,225.572,220.204,-18.5286
10441,176436,227.203,221.847,-18.9585
10499,177416.2,228.842,223.49,-19.2542
10557,178396.4,230.471,225.134,-19.8171
10615,179376.6,232.105,226.777,-20.0893
10673,180356.8,233.741,228.42,-20.423
10731,181337,235.372,230.064,-21.0725
10789,182317.2,237.008,231.706,-21.5211
10847,183297.4,238.64,233.349,-22.1835
10905,184277.6,240.275,234.991,-22.5345
10963,185257.8,241.908,236.633,-23.2094
11021,186238,243.54,238.273,-24.0701
11079,187218.2,245.173,239.915,-25.00099
11137,188198.4,246.809,241.5556,-25.8995
11195,189178.6,248.445,243.197,-27.1629
11253,190158.8,250.076,244.838,-28.50067
11311,191139,251.707,246.48,-30.0415
11369,192119.2,253.34,248.116,-31.8386
11427,193099.4,254.978,249.755,-34.11998
11485,194079.6,256.61,251.393,-36.7631
11543,195059.8,258.243,253.036,-40.11295
11601,196040,259.88,254.673,-44.1529
11659,197020.2,261.508,256.31,-49.1729
11717,198000.4,263.144,257.945,-55.7234
11775,198980.6,264.782,259.582,-64.4704
11833,199960.8,266.411,261.219,-75.8589
11891,200941,268.048,262.855,-91.442
11949,201921.2,269.679,264.49,-112.825
12007,202901.4,271.313,266.124,-141.322
12065,203881.6,272.951,267.754,-178.661
12123,204861.8,274.58,269.384,-222.91
12181,205842,276.215,271.012,-248.058
12239,206822.2,277.849,272.644,-194.866
12297,207802.4,279.482,274.299,-43.46681
12355,208782.6,281.117,275.957,-35.1264
12413,209762.8,282.751,277.61,-34.6385
12471,210743,284.384,279.259,-34.48045
12529,211723.2,286.017,280.906,-34.4168
12587,212703.4,287.651,282.55,-34.3232
12645,213683.6,289.285,284.192,-34.2756
12703,214663.8,290.917,285.834,-34.2259
12761,215644,292.552,287.477,-34.1814
12819,216624.2,294.186,289.116,-34.1498
12877,217604.4,295.823,290.756,-34.0811
12935,218584.6,297.453,292.393,-33.9815
12993,219564.8,299.088,294.018,-33.7707
13051,220545,299.167,295.411,-29.4307
13109,221525.2,299.161,296.358,-20.3949
13167,222505.4,299.157,296.995,-13.5561
13225,223485.6,299.159,297.424,-8.847305
13283,224465.8,299.158,297.715,-5.779071
13341,225446,299.155,297.913,-3.673784
13399,226426.2,299.152,298.048,-2.22557
13457,227406.4,299.144,298.134,-1.137662
13515,228386.6,299.149,298.187,-0.411349
13573,229366.8,299.148,298.22,0.041357
13631,230347,299.153,298.242,0.30545
13689,231327.2,299.149,298.259,0.419214
13747,232307.4,299.148,298.268,0.578795
13805,233287.6,299.152,298.273,0.676259
13863,234267.8,299.152,298.278,0.681746
13921,235248,299.15,298.282,0.689637
13979,236228.2,299.148,298.284,0.722238
14037,237208.4,299.151,298.284,0.767539
14095,238188.6,299.15,298.284,0.743173
14153,239168.8,299.149,298.284,0.732362
14211,240149,299.148,298.284,0.782982
14269,241129.2,299.149,298.282,0.792593
14327,242109.4,299.154,298.281,0.805807
14385,243089.6,299.148,298.282,0.786588
14443,244069.8,299.152,298.284,0.745404
14501,245050,299.149,298.284,0.789674
14559,246030.2,299.153,298.2862,0.739568
14617,247010.4,299.161,298.292,0.653939
14675,247990.6,299.144,298.3,0.649644
14733,248970.8,299.151,298.3,0.759462
14791,249951,299.153,298.303,0.740585
14849,250931.2,299.151,298.305,0.722566
14907,251911.4,299.151,298.308,0.737321
14954,252705.7,299.15,298.31,0.738349