Folder: NH3_Calorimetry/i_data/0.10Kmin/old_wt%

Note: README.md
# <u>Calorimetry Analysis</u>
*Repository for analysis specific heat capacity analysis of the calorimetry data of H2O-NH3 systems*

Folder Structure:
- **i_data**: all experimental data
  - **26C**: data with T range up to 26 C (299.15 K)
  - **46C**: data with T range up to 26 C (299.15 K)
  - **calibration_ice**: data for calibration of calorimeter
- **i_data_literature**: all literature data
  - **lit_cp**: past NH3-H2O specific heat measurements
- **i_data_processed**: processed experimental data
  - **not_smoothed**: data that has not undergone average smoothing (used for plotting)
- **o_finalPlots**: plots used in the manuscript
- **o_supplementaryPlots**: plots used in the supplementary information
- **z_scripts**: all scripts used in analysis
- **z_unorganized_archive**: folders pre-organization.

File: H2O-NH3_1.62wt%.csv
H2O-NH3 1.76wt% Specific Heat - Large HF,,,,
Creation Date : 9/1/2022 9:36:12 AM,,,,
User : admin,,,,
,,,,
HeatFlow :,,,,
 Initial Mass : 4887.3 mg,,,,
 Molar Mass : 17 g/mol,,,,
,,,,
Index,Time(s),Furnace Temperature(K),Sample Temperature(K),HeatFlow(mW)
1,0,300.039,300.077,88.7945
59,980.2,300.007,300.07,3.874594
117,1960.4,299.342,299.979,1.462328
175,2940.6,295.255,299.183,14.5309
233,3920.8,287.858,296.56,51.8109
291,4901,280.21,292.266,88.6023
349,5881.2,273.127,286.974,111.701
407,6861.4,266.597,281.215,123.028
465,7841.6,260.4,275.313,127.381
523,8821.8,254.541,269.428,128.738
581,9802,249.055,263.679,126.665
639,10782.2,243.8,258.173,1537.23
697,11762.4,238.807,252.881,319.236
755,12742.6,234.078,247.679,94.8248
813,13722.8,229.516,242.69,72.3149
871,14703,225.089,237.901,62.9154
929,15683.2,220.798,233.281,56.468
987,16663.4,216.673,228.823,51.7834
1045,17643.6,212.728,224.534,47.2674
1103,18623.8,208.938,220.405,44.1169
1161,19604,205.302,216.432,41.359
1219,20584.2,201.804,212.613,38.2722
1277,21564.4,198.416,208.928,36.1662
1335,22544.6,195.141,205.374,33.62958
1393,23524.8,191.955,201.937,32.1645
1451,24505,188.921,198.619,30.2499
1509,25485.2,185.944,195.408,27.9423
1567,26465.4,183.073,192.298,26.633
1625,27445.6,180.291,189.285,25.0395
1683,28425.8,177.646,186.375,23.0555
1741,29406,175.106,183.569,22.3107
1799,30386.2,172.665,180.87,21.298
1857,31366.4,170.262,178.26,20.254
1915,32346.6,168.037,175.743,19.0654
1973,33326.8,165.952,173.341,17.8342
2031,34307,163.936,171.046,17.2612
2089,35287.2,161.973,168.843,16.7016
2147,36267.4,160.04,166.72,15.5323
2205,37247.6,158.14,164.66,14.9784
2263,38227.8,156.306,162.659,14.4271
2321,39208,154.517,160.716,13.4429
2379,40188.2,152.749,158.826,13.0403
2437,41168.4,150.831,156.955,12.8683
2495,42148.6,148.992,155.079,13.15599
2553,43128.8,147.148,153.226,12.7221
2611,44109,145.379,151.382,12.4638
2669,45089.2,143.722,149.582,12.1936
2727,46069.4,142.107,147.828,11.754
2785,47049.6,140.595,146.126,11.2561
2843,48029.8,139.111,144.485,10.5814
2901,49010,137.698,142.899,10.3304
2959,49990.2,136.269,141.364,9.814443
3017,50970.4,134.873,139.857,9.787477
3075,51950.6,133.604,138.399,9.225603
3133,52930.8,132.372,136.999,8.617722
3191,53911,131.105,135.646,8.34612
3249,54891.2,129.9186,134.322,8.161554
3307,55871.4,128.64,133.029,7.727407
3365,56851.6,127.37,131.736,7.656852
3423,57831.8,126.288,130.473,7.355772
3481,58812,125.246,129.267,7.032157
3539,59792.2,124.359,128.13,6.425916
3597,60772.4,123.428,127.056,5.935547
3655,61752.6,122.547,126.025,5.645499
3713,62732.8,121.681,125.037,5.360988
3771,63713,120.795,124.072,5.240653
3829,64693.2,119.936,123.135,5.010643
3887,65673.4,119.114,122.226,4.815535
3945,66653.6,118.395,121.356,4.572
4003,67633.8,117.684,120.525,4.309387
4061,68614,116.918,119.719,4.163184
4119,69594.2,116.163,118.927,4.038232
4177,70574.4,115.467,118.144,3.930318
4235,71554.6,114.79,117.387,3.768724
4293,72534.8,114.169,116.665,3.522513
4351,73515,113.55,115.966,3.437713
4409,74495.2,112.932,115.286,3.323833
4467,75475.4,112.366,114.634,3.151458
4525,76455.6,111.824,114.011,2.992352
4583,77435.8,111.319,113.408,2.850936
4641,78416,110.68,112.821,2.797925
4699,79396.2,110.172,112.228,2.763289
4757,80376.4,109.758,111.67,2.554409
4815,81356.6,109.285,111.146,2.383379
4873,82336.8,108.887,110.649,2.20754
4931,83317,108.507,110.178,2.052725
4989,84297.2,108.051,109.721,1.982055
5047,85277.4,107.622,109.262,1.98164
5105,86257.6,107.37,108.842,1.726201
5163,87237.8,107.202,108.474,1.406303
5221,88218,107.102,108.168,1.065832
5279,89198.2,106.917,107.914,0.814819
5337,90178.4,106.685,107.658,0.809121
5395,91158.6,106.535,107.425,0.685294
5453,92138.8,106.3,107.198,0.680448
5511,93119,106.2311,106.997,0.499513
5569,94099.2,106.124,106.819,0.375304
5627,95079.4,106.102,106.678,0.176693
5685,96059.6,106.045,106.56,0.051715
5743,97039.8,106.022,106.464,-0.050157
5801,98020,106.034,106.392,-0.182838
5859,99000.2,106.05,106.342,-0.301223
5917,99980.4,106.069,106.31,-0.413883
5975,100960.6,106.088,106.2909,-0.46321
6033,101940.8,106.093,106.28,-0.490443
6091,102921,106.12,106.275,-0.543889
6149,103901.2,106.071,106.274,-0.551575
6207,104881.4,107.896,106.429,-1.901676
6265,105861.6,109.509,107.01,-3.944158
6323,106841.8,111.168,107.823,-5.206239
6381,107822,112.829,108.832,-6.272442
6439,108802.2,114.496,110.012,-7.220087
6497,109782.4,116.126,111.317,-7.917578
6555,110762.6,117.779,112.724,-8.544743
6613,111742.8,119.402,114.213,-9.054019
6671,112723,121.024,115.752,-9.428721
6729,113703.2,122.657,117.316,-9.723829
6787,114683.4,124.284,118.9,-10.072
6845,115663.6,125.919,120.493,-10.434
6903,116643.8,127.547,122.094,-10.6364
6961,117624,129.179,123.7,-10.5873
7019,118604.2,130.82,125.309,-10.65187
7077,119584.4,132.447,126.9271,-10.7478
7135,120564.6,134.091,128.538,-10.7733
7193,121544.8,135.706,130.153,-10.857
7251,122525,137.346,131.762,-10.9084
7309,123505.2,138.993,133.375,-11.0055
7367,124485.4,140.625,134.991,-11.1053
7425,125465.6,142.256,136.615,-11.2013
7483,126445.8,143.891,138.236,-11.2793
7541,127426,145.513,139.859,-11.3508
7599,128406.2,147.156,141.477,-11.4269
7657,129386.4,148.783,143.103,-11.52143
7715,130366.6,150.425,144.729,-11.5695
7773,131346.8,152.062,146.358,-11.5163
7831,132327,153.688,147.986,-11.2671
7889,133307.2,155.316,149.617,-10.6384
7947,134287.4,156.96,151.247,-9.232813
8005,135267.6,158.596,152.88,-6.966292
8063,136247.8,160.222,154.519,-4.9721
8121,137228,161.854,156.157,-4.816713
8179,138208.2,163.492,157.79,-8.629912
8237,139188.4,165.122,159.426,-11.4388
8295,140168.6,166.766,161.063,-11.9779
8353,141148.8,168.384,162.699,-12.0123
8411,142129,170.024,164.336,-12.0919
8469,143109.2,171.664,165.972,-12.1866
8527,144089.4,173.297,167.612,-12.3068
8585,145069.6,174.928,169.249,-12.5146
8643,146049.8,176.558,170.886,-18.9984
8701,147030,178.193,172.525,-2.285474
8759,148010.2,179.824,174.166,-11.6836
8817,148990.4,181.467,175.808,-14.6301
8875,149970.6,183.098,177.443,-48.4522
8933,150950.8,184.732,179.086,-14.17168
8991,151931,186.365,180.729,-13.6149
9049,152911.2,187.991,182.37,-13.4688
9107,153891.4,189.632,184.013,-13.6963
9165,154871.6,191.271,185.656,-13.7765
9223,155851.8,192.9,187.299,-13.9209
9281,156832,194.527,188.943,-14.0509
9339,157812.2,196.166,190.583,-14.0758
9397,158792.4,197.801,192.225,-14.0808
9455,159772.6,199.436,193.866,-14.0809
9513,160752.8,201.07,195.509,-14.3355
9571,161733,202.703,197.151,-14.2622
9629,162713.2,204.337,198.793,-14.4491
9687,163693.4,205.971,200.435,-14.5977
9745,164673.6,207.601,202.078,-14.6548
9803,165653.8,209.227,203.72,-14.9431
9861,166634,210.87,205.355,-14.9217
9919,167614.2,212.504,206.996,-14.9836
9977,168594.4,214.13,208.636,-15.1435
10035,169574.6,215.767,210.278,-15.1867
10093,170554.8,217.406,211.92,-15.5714
10151,171535,219.036,213.565,-15.6081
10209,172515.2,220.674,215.214,-15.7985
10267,173495.4,222.305,216.863,-15.9215
10325,174475.6,223.942,218.512,-16.0698
10383,175455.8,225.569,220.16,-16.1552
10441,176436,227.202,221.807,-16.0904
10499,177416.2,228.846,223.454,-16.5514
10557,178396.4,230.473,225.101,-16.7801
10615,179376.6,232.106,226.752,-16.8663
10673,180356.8,233.741,228.397,-17.22
10731,181337,235.376,230.042,-17.446
10789,182317.2,237.005,231.687,-17.7348
10847,183297.4,238.642,233.33,-17.9516
10905,184277.6,240.276,234.975,-18.3864
10963,185257.8,241.907,236.621,-18.588
11021,186238,243.542,238.266,-19.1575
11079,187218.2,245.173,239.91,-19.5313
11137,188198.4,246.81,241.552,-19.9692
11195,189178.6,248.443,243.195,-20.7783
11253,190158.8,250.078,244.838,-21.345
11311,191139,251.711,246.482,-22.2613
11369,192119.2,253.343,248.125,-23.2163
11427,193099.4,254.978,249.768,-24.27
11485,194079.6,256.609,251.409,-25.5028
11543,195059.8,258.245,253.051,-27.1025
11601,196040,259.88,254.693,-28.9763
11659,197020.2,261.512,256.334,-31.5898
11717,198000.4,263.146,257.974,-34.82416
11775,198980.6,264.782,259.617,-39.1779
11833,199960.8,266.413,261.26,-44.89746
11891,200941,268.046,262.9,-53.0714
11949,201921.2,269.679,264.537,-64.9112
12007,202901.4,271.313,266.174,-82.5132
12065,203881.6,272.947,267.808,-109.525
12123,204861.8,274.579,269.439,-150.823
12181,205842,276.215,271.065,-215.96
12239,206822.2,277.844,272.682,-305.235
12297,207802.4,279.482,274.293,-385.682
12355,208782.6,281.114,275.914,-228.261
12413,209762.8,282.749,277.579,-44.2438
12471,210743,284.385,279.243,-35.7101
12529,211723.2,286.013,280.898,-35.0195
12587,212703.4,287.651,282.546,-34.85821
12645,213683.6,289.284,284.194,-34.7877
12703,214663.8,290.92,285.841,-34.7456
12761,215644,292.552,287.484,-34.6065
12819,216624.2,294.183,289.126,-34.5595
12877,217604.4,295.817,290.764,-34.4526
12935,218584.6,297.452,292.397,-34.2662
12993,219564.8,299.089,294.02,-34.1024
13051,220545,299.165,295.413,-29.7424
13109,221525.2,299.164,296.359,-20.6278
13167,222505.4,299.161,296.998,-13.7308
13225,223485.6,299.153,297.427,-8.972304
13283,224465.8,299.151,297.712,-5.717283
13341,225446,299.152,297.901,-3.551953
13399,226426.2,299.153,298.029,-2.132242
13457,227406.4,299.152,298.113,-1.164802
13515,228386.6,299.152,298.171,-0.537148
13573,229366.8,299.15,298.209,-0.116521
13631,230347,299.153,298.232,0.196142
13689,231327.2,299.149,298.249,0.343371
13747,232307.4,299.151,298.26,0.467089
13805,233287.6,299.148,298.268,0.538813
13863,234267.8,299.153,298.274,0.590631
13921,235248,299.15,298.28,0.604184
13979,236228.2,299.149,298.282,0.654975
14037,237208.4,299.152,298.283,0.698216
14095,238188.6,299.152,298.285,0.671274
14153,239168.8,299.149,298.288,0.658746
14211,240149,299.147,298.289,0.705762
14269,241129.2,299.152,298.287,0.74849
14327,242109.4,299.151,298.287,0.738194
14385,243089.6,299.145,298.287,0.714515
14443,244069.8,299.153,298.284,0.79242
14501,245050,299.149,298.285,0.697871
14559,246030.2,299.149,298.286,0.712628
14617,247010.4,299.151,298.287,0.710568
14675,247990.6,299.15,298.288,0.681224
14733,248970.8,299.149,298.287,0.768566
14791,249951,299.151,298.287,0.738538
14849,250931.2,299.146,298.286,0.719148
14907,251911.4,299.151,298.287,0.726698
14954,252705.7,299.15,298.288,0.69684

File: H2O-NH3_5.83wt%.csv
H2O-NH3 6wt% Specific Heat - Large HF,,,,
Creation Date : 9/12/2022 10:05:39 AM,,,,
User : admin,,,,
,,,,
HeatFlow :,,,,
 Initial Mass : 4629.3 mg,,,,
 Molar Mass : 17 g/mol,,,,
,,,,
Index,Time(s),Furnace Temperature(K),Sample Temperature(K),HeatFlow(mW)
1,0,300.53,300.583,115.949
59,980.2,300.47,300.571,4.744069
117,1960.4,299.479,300.425,2.394454
175,2940.6,294.807,299.414,17.9558
233,3920.8,287.28,296.527,54.7929
291,4901,279.737,292.067,87.7965
349,5881.2,272.761,286.704,107.62
407,6861.4,266.257,280.922,117.018
465,7841.6,260.142,275.02,120.278
523,8821.8,254.347,269.165,120.086
581,9802,248.824,263.433,118.013
639,10782.2,243.546,257.861,115.479
697,11762.4,238.559,252.488,989.411
755,12742.6,233.813,247.423,373.728
813,13722.8,229.314,242.458,133.125
871,14703,225.02,237.704,95.5414
929,15683.2,220.854,233.151,78.8089
987,16663.4,216.822,228.773,67.475
1045,17643.6,212.922,224.556,59.43043
1103,18623.8,209.122,220.477,54.2038
1161,19604,205.481,216.539,48.5093
1219,20584.2,201.969,212.738,43.9537
1277,21564.4,198.563,209.064,40.5178
1335,22544.6,195.272,205.508,37.9514
1393,23524.8,192.081,202.07,35.3565
1451,24505,189.069,198.751,33.3073
1509,25485.2,186.032,195.537,30.6076
1567,26465.4,183.186,192.419,29.1282
1625,27445.6,180.44,189.416,27.1246
1683,28425.8,177.662,186.489,26.0321
1741,29406,174.986,183.636,24.8105
1799,30386.2,172.51,180.878,23.75341
1857,31366.4,170.007,178.207,22.4215
1915,32346.6,167.632,175.619,20.9644
1973,33326.8,165.331,173.105,20.8961
2031,34307,163.05,170.662,19.8176
2089,35287.2,160.9952,168.308,18.7403
2147,36267.4,158.95,166.05,17.9344
2205,37247.6,156.844,163.849,17.27841
2263,38227.8,155.009,161.715,16.5636
2321,39208,153.157,159.673,15.6531
2379,40188.2,151.456,157.705,14.8755
2437,41168.4,149.795,155.828,14.272
2495,42148.6,148.031,153.992,13.6838
2553,43128.8,146.54,152.216,12.7046
2611,44109,145.01,150.526,12.4708
2669,45089.2,143.354,148.855,12.0146
2727,46069.4,141.761,147.206,11.82
2785,47049.6,140.409,145.603,11.2698
2843,48029.8,138.9961,144.067,10.6054
2901,49010,137.586,142.568,10.4871
2959,49990.2,136.089,141.081,10.1601
3017,50970.4,134.786,139.619,9.981314
3075,51950.6,133.65,138.219,9.502133
3133,52930.8,132.643,136.9186,8.671039
3191,53911,131.482,135.673,8.256086
3249,54891.2,130.442,134.462,7.87401
3307,55871.4,129.418,133.31,7.422817
3365,56851.6,128.32,132.172,7.372475
3423,57831.8,127.246,131.05,7.08596
3481,58812,126.202,129.947,6.846839
3539,59792.2,125.294,128.877,6.600033
3597,60772.4,124.432,127.859,6.260522
3655,61752.6,123.634,126.892,5.908065
3713,62732.8,122.855,125.974,5.470354
3771,63713,122.064,125.097,5.13871
3829,64693.2,121.206,124.224,5.045304
3887,65673.4,120.374,123.36,5.065766
3945,66653.6,119.644,122.514,4.820463
4003,67633.8,119.064,121.726,4.371178
4061,68614,118.339,120.973,4.109487
4119,69594.2,117.632,120.224,4.036461
4177,70574.4,116.991,119.496,3.944498
4235,71554.6,116.523,118.817,3.634355
4293,72534.8,115.996,118.19,3.280097
4351,73515,115.481,117.584,3.143623
4409,74495.2,114.963,117.006,2.939521
4467,75475.4,114.372,116.433,2.949477
4525,76455.6,113.957,115.877,2.775178
4583,77435.8,113.576,115.37,2.4933
4641,78416,113.143,114.883,2.363258
4699,79396.2,112.728,114.408,2.268623
4757,80376.4,112.575,113.99,1.879036
4815,81356.6,112.375,113.638,1.483755
4873,82336.8,112.098,113.314,1.309193
4931,83317,111.818,113,1.273763
4989,84297.2,111.561,112.699,1.185604
5047,85277.4,111.324,112.41,1.096965
5105,86257.6,111.08,112.136,1.017665
5163,87237.8,110.842,111.871,0.944737
5221,88218,110.561,111.606,0.949626
5279,89198.2,110.232,111.331,0.99834
5337,90178.4,109.955,111.049,1.018295
5395,91158.6,109.699,110.77,0.990675
5453,92138.8,109.501,110.505,0.89591
5511,93119,109.355,110.266,0.742264
5569,94099.2,109.223,110.052,0.596988
5627,95079.4,109.054,109.851,0.535286
5685,96059.6,108.991,109.676,0.38164
5743,97039.8,108.914,109.526,0.245033
5801,98020,108.905,109.406,0.074044
5859,99000.2,108.883,109.313,-0.069093
5917,99980.4,108.83,109.237,-0.138265
5975,100960.6,108.752,109.162,-0.152427
6033,101940.8,108.681,109.086,-0.152201
6091,102921,108.597,109.012,-0.152911
6149,103901.2,108.521,108.935,-0.151117
6207,104881.4,108.419,108.856,-0.119523
6265,105861.6,109.291,108.812,-0.501785
6323,106841.8,111.197,109.221,-3.124464
6381,107822,112.83,109.958,-4.807535
6439,108802.2,114.467,110.926,-6.057778
6497,109782.4,116.106,112.07,-7.049848
6555,110762.6,117.735,113.34,-7.82123
6613,111742.8,119.381,114.696,-8.403363
6671,112723,121.008,116.122,-8.971824
6729,113703.2,122.643,117.601,-9.578416
6787,114683.4,124.29,119.112,-10.3112
6845,115663.6,125.907,120.652,-11.2953
6903,116643.8,127.557,122.216,-11.6365
6961,117624,129.17,123.79,-11.1946
7019,118604.2,130.812,125.373,-11.304
7077,119584.4,132.45,126.967,-11.42992
7135,120564.6,134.075,128.568,-11.5509
7193,121544.8,135.732,130.176,-11.6854
7251,122525,137.339,131.789,-11.7674
7309,123505.2,138.998,133.404,-11.8668
7367,124485.4,140.611,135.02,-11.9196
7425,125465.6,142.256,136.644,-12.0448
7483,126445.8,143.886,138.26,-12.07754
7541,127426,145.514,139.885,-12.1943
7599,128406.2,147.166,141.505,-12.22126
7657,129386.4,148.787,143.136,-12.3041
7715,130366.6,150.419,144.76,-12.048
7773,131346.8,152.048,146.389,-11.2004
7831,132327,153.694,148.016,-8.598725
7889,133307.2,155.33,149.646,-1.628769
7947,134287.4,156.947,151.284,13.689
8005,135267.6,158.595,152.919,23.39833
8063,136247.8,160.219,154.552,-0.492201
8121,137228,161.858,156.185,-10.2474
8179,138208.2,163.494,157.82,-11.1956
8237,139188.4,165.122,159.458,-11.607
8295,140168.6,166.76,161.093,-11.7301
8353,141148.8,168.385,162.732,-11.7998
8411,142129,170.024,164.366,-11.874
8469,143109.2,171.655,166.002,-11.9718
8527,144089.4,173.301,167.641,-12.1891
8585,145069.6,174.92,169.279,-13.0885
8643,146049.8,176.564,170.916,-20.0384
8701,147030,178.193,172.555,-11.0362
8759,148010.2,179.822,174.195,-12.7219
8817,148990.4,181.467,175.832,-21.4339
8875,149970.6,183.091,177.461,-117.597
8933,150950.8,184.729,179.099,-19.3519
8991,151931,186.365,180.745,-15.2242
9049,152911.2,187.994,182.393,-15.4075
9107,153891.4,189.634,184.036,-15.5522
9165,154871.6,191.259,185.679,-15.5488
9223,155851.8,192.899,187.322,-15.8652
9281,156832,194.535,188.969,-15.8293
9339,157812.2,196.156,190.613,-15.9128
9397,158792.4,197.803,192.255,-16.2283
9455,159772.6,199.431,193.897,-16.1298
9513,160752.8,201.067,195.54,-16.5737
9571,161733,202.694,197.182,-16.6594
9629,162713.2,204.328,198.821,-16.723
9687,163693.4,205.974,200.462,-17.2578
9745,164673.6,207.599,202.105,-17.35624
9803,165653.8,209.235,203.749,-17.4534
9861,166634,210.865,205.392,-17.5124
9919,167614.2,212.499,207.032,-17.8382
9977,168594.4,214.136,208.672,-18.0035
10035,169574.6,215.768,210.313,-18.3284
10093,170554.8,217.407,211.954,-18.5415
10151,171535,219.035,213.599,-18.8992
10209,172515.2,220.674,215.244,-19.31555
10267,173495.4,222.3,216.887,-19.6455
10325,174475.6,223.941,218.529,-20.04278
10383,175455.8,225.577,220.175,-20.2842
10441,176436,227.203,221.823,-20.8781
10499,177416.2,228.837,223.469,-21.1588
10557,178396.4,230.471,225.116,-21.7021
10615,179376.6,232.104,226.758,-22.2917
10673,180356.8,233.746,228.401,-22.8932
10731,181337,235.369,230.052,-23.6075
10789,182317.2,237,231.692,-24.2101
10847,183297.4,238.644,233.333,-24.9615
10905,184277.6,240.275,234.975,-25.9132
10963,185257.8,241.908,236.619,-26.7346
11021,186238,243.543,238.26,-28.0312
11079,187218.2,245.171,239.905,-29.4059
11137,188198.4,246.808,241.545,-30.7608
11195,189178.6,248.445,243.189,-32.607
11253,190158.8,250.071,244.831,-34.5716
11311,191139,251.712,246.469,-36.5916
11369,192119.2,253.343,248.11,-39.459
11427,193099.4,254.98,249.751,-42.887
11485,194079.6,256.608,251.394,-46.7384
11543,195059.8,258.247,253.032,-51.5103
11601,196040,259.878,254.673,-57.6282
11659,197020.2,261.52,256.313,-65.0206
11717,198000.4,263.139,257.955,-74.54
11775,198980.6,264.777,259.59,-86.1279
11833,199960.8,266.412,261.227,-101.02
11891,200941,268.045,262.861,-118.4
11949,201921.2,269.688,264.493,-138.446
12007,202901.4,271.311,266.128,-158.625
12065,203881.6,272.949,267.762,-168.596
12123,204861.8,274.59,269.4,-143.473
12181,205842,276.209,271.055,-42.292
12239,206822.2,277.848,272.71,-33.4766
12297,207802.4,279.477,274.357,-32.9244
12355,208782.6,281.116,276,-32.8057
12413,209762.8,282.75,277.644,-32.7913
12471,210743,284.388,279.288,-32.7565
12529,211723.2,286.014,280.931,-32.7194
12587,212703.4,287.649,282.57,-32.6598
12645,213683.6,289.282,284.21,-32.6635
12703,214663.8,290.923,285.849,-32.6443
12761,215644,292.549,287.491,-32.6476
12819,216624.2,294.179,289.128,-32.5653
12877,217604.4,295.825,290.765,-32.5637
12935,218584.6,297.454,292.4,-32.4801
12993,219564.8,299.087,294.028,-32.3862
13051,220545,299.166,295.418,-28.2253
13109,221525.2,299.164,296.366,-19.5922
13167,222505.4,299.157,297.004,-13.0124
13225,223485.6,299.155,297.431,-8.470797
13283,224465.8,299.153,297.716,-5.415086
13341,225446,299.154,297.907,-3.378385
13399,226426.2,299.156,298.036,-2.038857
13457,227406.4,299.149,298.121,-1.042255
13515,228386.6,299.153,298.178,-0.450137
13573,229366.8,299.146,298.214,-0.019048
13631,230347,299.148,298.238,0.244361
13689,231327.2,299.15,298.252,0.417672
13747,232307.4,299.151,298.264,0.490596
13805,233287.6,299.147,298.269,0.606936
13863,234267.8,299.154,298.273,0.661844
13921,235248,299.152,298.275,0.689985
13979,236228.2,299.153,298.281,0.664585
14037,237208.4,299.151,298.282,0.695128
14095,238188.6,299.149,298.286,0.679167
14153,239168.8,299.151,298.288,0.687917
14211,240149,299.148,298.287,0.735792
14269,241129.2,299.146,298.287,0.736307
14327,242109.4,299.152,298.286,0.760845
14385,243089.6,299.148,298.281,0.837209
14443,244069.8,299.142,298.276,0.819881
14501,245050,299.149,298.269,0.896763
14559,246030.2,299.15,298.261,0.910325
14617,247010.4,299.145,298.257,0.83963
14675,247990.6,299.15,298.255,0.829337
14733,248970.8,299.155,298.253,0.835515
14791,249951,299.16,298.261,0.679012
14849,250931.2,299.148,298.267,0.60934
14907,251911.4,299.15,298.272,0.648461
14954,252705.7,299.148,298.273,0.6754