Folder: NH3_Calorimetry/archive/0.1Kmin_wrong_wt%

Note: archive/0.1Kmin_wrong_wt%/1.76wt%_liquidus.txt
Index                      12206.000000
Time(s)                   206264.500000
Furnace Temperature(K)       276.914434
Sample Temperature(K)        271.764273
HeatFlow(mW)                -254.960565
Q_Corrected                 -255.457666
Fc                             0.000210

Note: README.md
# <u>Calorimetry Analysis</u>
*Repository for analysis specific heat capacity analysis of the calorimetry data of H2O-NH3 systems*

Folder Structure:
- **i_data**: all experimental data
  - **26C**: data with T range up to 26 C (299.15 K)
  - **46C**: data with T range up to 26 C (299.15 K)
  - **calibration_ice**: data for calibration of calorimeter
- **i_data_literature**: all literature data
  - **lit_cp**: past NH3-H2O specific heat measurements
- **i_data_processed**: processed experimental data
  - **not_smoothed**: data that has not undergone average smoothing (used for plotting)
- **o_finalPlots**: plots used in the manuscript
- **o_supplementaryPlots**: plots used in the supplementary information
- **z_scripts**: all scripts used in analysis
- **z_unorganized_archive**: folders pre-organization.

File: 30wt%_peaks.txt
 Index  Time(s)  Furnace Temperature(K)  Sample Temperature(K)  HeatFlow(mW)  Q_Corrected
  6014 101619.7              104.393             104.153     -1.188039    -0.687565
  6893 116474.8              127.266             121.871    -17.579   -16.2292
  7024 118688.7              130.957             125.483    -15.3536   -14.0017
  7473 126276.8              143.602             137.959    -15.8315   -14.5867
  7756 131059.5              151.568             145.915    188.385   189.569
  8409 142095.2              169.973             164.286    -12.1479   -11.2618
  8413 142162.8              170.084             164.399    -11.0416   -10.1498
  8933 150950.8              184.729             179.043   -236.601  -236.071
  9115 154026.6              189.854             184.202    -22.1363   -21.7118
  9924 167698.7              212.638             207.151    -28.5266   -28.5236
 10077 170284.4              216.95             211.488    -21.7274   -21.8062
 10227 172819.4              221.183             215.739    -21.9688   -21.9715
 10417 176030.4              226.537             221.128    -22.1969   -22.504
 10676 180407.5              233.825             228.478    -22.9093   -23.3171
 10855 183432.6              238.867             233.556    -23.6481   -24.2808
 11026 186322.5              243.683             238.407    -24.081   -24.9671
 11254 190175.7              250.105             244.869    -24.1528   -24.4162
 11410 192812.1              254.498             249.287    -24.6657   -24.9514
 12899 217976.2              296.439             291.384    -28.1939   -28.875