Folder: NH3_Calorimetry/i_data/0.10Kmin

Note: README.md
# <u>Calorimetry Analysis</u>
*Repository for analysis specific heat capacity analysis of the calorimetry data of H2O-NH3 systems*

Folder Structure:
- **i_data**: all experimental data
  - **26C**: data with T range up to 26 C (299.15 K)
  - **46C**: data with T range up to 26 C (299.15 K)
  - **calibration_ice**: data for calibration of calorimeter
- **i_data_literature**: all literature data
  - **lit_cp**: past NH3-H2O specific heat measurements
- **i_data_processed**: processed experimental data
  - **not_smoothed**: data that has not undergone average smoothing (used for plotting)
- **o_finalPlots**: plots used in the manuscript
- **o_supplementaryPlots**: plots used in the supplementary information
- **z_scripts**: all scripts used in analysis
- **z_unorganized_archive**: folders pre-organization.

File: mean_H2O-NH3_0g.csv
Index,Time(s),Furnace Temperature(K),Sample Temperature(K),HeatFlow(mW),Q_Corrected,T(K),Sample Temperature(K)_2
57.0,946.4,298.149,299.0,0.990192,0.990192,299.0,299.005
11261.1,190296,297.981,297.0,0.538472,0.538472,297.0,297.075
9628.5,162704.75,295.819,295.0,0.414909,0.414909,295.0,295.029
9395.34,158764.346,293.791,293.0,0.476282,0.476282,293.0,292.995
9467.0,159975.4,291.583,291.0,0.485683,0.485683,291.0,290.997
9882.3,166994,289.966,289.0,0.497054,0.497054,289.0,288.992
9833.06,166162,287.828,287.0,0.49887,0.49887,287.0,287.006
9783.83,165330,285.708,285.0,0.492933,0.492933,285.0,284.993
9879.44,166946,283.876,283.0,0.492331,0.492331,283.0,283.007
9828.89,166091,281.814,281.0,0.507571,0.507571,281.0,280.991
9836.8,166225,279.891,279.0,0.516364,0.516364,279.0,279.002
9525.7,160967,277.452,277.0,0.580915,0.580915,277.0,277
9735.37,164511,275.871,275.0,0.656376,0.656376,275.0,274.999
9684.15,163645,273.876,273.0,0.66377,0.66377,273.0,272.998
9378.98,158488,271.464,271.0,0.695666,0.695666,271.0,271.001
9526.22,160976,269.806,269.0,0.645234,0.645234,269.0,268.995
9339.74,157825,267.6,267.0,0.741685,0.741685,267.0,267.002
9232.5,156012.35,265.524,265.0,0.742295,0.742295,265.0,265.002
9183.5,155184.25,263.545,263.0,0.686886,0.686886,263.0,262.998
9134.5,154356.15,261.576,261.0,0.743043,0.743043,261.0,261
9142.87,154498,259.704,259.0,0.790558,0.790558,259.0,258.993
9037.74,152721,257.644,257.0,0.73479,0.73479,257.0,256.994
8988.98,151897,255.672,255.0,0.744095,0.744095,255.0,254.992
8995.94,152014,253.818,253.0,0.82106,0.82106,253.0,253.005
8946.94,151186,251.841,251.0,0.844015,0.844015,251.0,250.995
8727.25,147473.625,249.588,249.0,0.767204,0.767204,249.0,249.003
8624.02,145729,247.522,247.0,0.92542,0.92542,247.0,246.993
8577.02,144935,245.57,245.0,0.695072,0.695072,245.0,245.001
8586.0,145086.5,243.71,243.0,0.895672,0.895672,243.0,243.005
8484.53,143372,241.647,241.0,0.951681,0.951681,241.0,240.995
8279.44,139906,239.411,239.0,1.06584,1.06584,239.0,238.994
8290.73,140097,237.563,237.0,0.844106,0.844106,237.0,237.001
8190.44,138401,235.51,235.0,0.971231,0.971231,235.0,234.994
8200.94,138579,233.655,233.0,0.962703,0.962703,233.0,232.998
8101.71,136902,231.616,231.0,0.988585,0.988585,231.0,231.01
8057.25,136150.625,229.655,229.0,0.98862,0.98862,229.0,229
7924.98,133915.262,227.546,227.0,0.919963,0.919963,227.0,226.999
7827.57,132269,225.498,225.0,0.798796,0.798796,225.0,224.996
7784.86,131547,223.543,223.0,0.887654,0.887654,223.0,222.994
7743.14,130842,221.598,221.0,0.978603,0.978603,221.0,221.001
7700.71,130125,219.647,219.0,0.833225,0.833225,219.0,218.998
7582.0,128118.9,217.572,217.0,0.73758,0.73758,217.0,217.006
7488.2,126534,215.517,215.0,0.623269,0.623269,215.0,214.995
7379.27,124692.75,213.452,213.0,0.790339,0.790339,213.0,213.005
7408.1,125179.99,211.621,211.0,0.737011,0.737011,211.0,211.004
7132.96,120530.15,209.225,209.0,0.765961,0.765961,209.0,208.994
7210.33,121838,207.498,207.0,0.622632,0.622632,207.0,207.003
7171.96,121189,205.554,205.0,0.511155,0.511155,205.0,204.995
7023.31,118677.0,203.433,203.0,0.587521,0.587521,203.0,203.011
6986.96,118062.75,201.459,201.0,0.557719,0.557719,201.0,200.992
6846.87,115695,199.326,199.0,0.390122,0.390122,199.0,199.01
6812.21,115109,197.381,197.0,0.376399,0.376399,197.0,196.993
6680.59,112885,195.289,195.0,0.201682,0.201682,195.0,195.005
6698.73,113192,193.468,193.0,0.375024,0.375024,193.0,192.995
6524.45,110246,191.281,191.0,0.191182,0.191182,191.0,190.999
6493.45,109722,189.351,189.0,0.00326091,0.00326091,189.0,189.005
6512.57,110046,187.51,187.0,-0.0273302,-0.0273302,187.0,187.001
6349.125,107283,185.332,185.0,-0.0222402,-0.0222402,185.0,185.003
6369.42,107626,183.491,183.0,-0.153679,-0.153679,183.0,182.997
6214.3,105005,181.322,181.0,-0.182626,-0.182626,181.0,181.005
6188.07,104561,179.397,179.0,-0.15128,-0.15128,179.0,178.998
6064.5,102473.15,177.3,177.0,-0.205398,-0.205398,177.0,177.002
5994.85,101296,175.284,175.0,-0.221117,-0.221117,175.0,174.996
5905.75,99790.275,173.236,173.0,-0.1778484,-0.1778484,173.0,172.999
5867.85,99149.8,171.286,171.0,-0.195349,-0.195349,171.0,171
5804.02,98071,169.282,169.0,-0.316229,-0.316229,169.0,169.001
5727.05,96770.2,167.248,167.0,-0.426724,-0.426724,167.0,166.999
5698.81,96293,165.302,165.0,-0.212709,-0.212709,165.0,165
5630.58,95140,163.271,163.0,-0.339093,-0.339093,163.0,163.002
5525.38,93362.1,161.165,161.0,-0.3927636,-0.3927636,161.0,161.008
5467.23,92379.2,159.142,159.0,-0.518251,-0.518251,159.0,159.004
5413.57,91472.4,157.122,157.0,-0.43842,-0.43842,157.0,156.997
5407.04,91362.2,155.199,155.0,-0.369878,-0.369878,155.0,155
5318.81,89871,153.115,153.0,-0.308556,-0.308556,153.0,153.007
5353.99,90465.5,151.257,151.0,-0.319624,-0.319624,151.0,150.996
5241.79,88569.3,149.118,149.0,-0.416027,-0.416027,149.0,149.001
5244.78,88619.9,147.19,147.0,-0.438152,-0.438152,147.0,146.997
5184.04,87593.376,145.143,145.0,-0.574832,-0.574832,145.0,145.004
5127.93,86645.2,143.08,143.0,-0.4740924,-0.4740924,143.0,142.996
5169.92,87354.8,141.176,141.0,-0.442308,-0.442308,141.0,140.999
5125.73,86607.95,139.119,139.0,-0.511699,-0.511699,139.0,139
5090.0,86004.1,137.059,137.0,-0.472758,-0.472758,137.0,137
5062.01,85531.1,135.094,135.0,-0.507896,-0.507896,135.0,134.998
5003.8,84547.4,133.017,133.0,-0.485014,-0.485014,133.0,133
4997.14,84434.7,131.023,131.0,-0.531268,-0.531268,131.0,130.995
4982.84,84193,128.999,129.0,-0.608073,-0.608073,129.0,128.994
5001.91,84515.3,127.052,127.0,-0.601196,-0.601196,127.0,127.001
4973.79,84040.2,124.991,125.0,-0.650646,-0.650646,125.0,125.004
4951.66,83666.2,122.939,123.0,-0.630596,-0.630596,123.0,122.997
4931.712,83329,120.943,121.0,-0.665855,-0.665855,121.0,120.994
4946.57,83580.2,118.918,119.0,-0.616364,-0.616364,119.0,118.997
5042.28,85197.6,116.89,117.0,-0.595584,-0.595584,117.0,116.998
5221.07,88219.1,114.898,115.0,-0.571565,-0.571565,115.0,114.988
5383.15,90958.3,112.846,113.0,-0.559556,-0.559556,113.0,112.972
6008.54,101527,110.882,111.0,-0.564996,-0.564996,111.0,111.004
6264.0,105844.7,110.239,110.0,-0.573674,-0.573674,110.0,110.34

File: mean_H2O-NH3_4.5858g.csv
Index,Time(s),Furnace Temperature(K),Sample Temperature(K),HeatFlow(mW),T(K),Sample Temperature(K)_2
58.0,963.3,298.471,299.0,54.5794,299.0,298.596
13631.9,230362,299.034,298.0,0.286022,298.0,298.151
10889.2,184011,297.806,297.0,-5.95605,297.0,297.065
10019.8,169317,296.668,296.0,-8.37046,296.0,296.03
9617.1,162512.09,295.76,295.0,-9.0016,295.0,295.016
9241.94,156172,294.676,294.0,-5.21637,294.0,294.007
9586.51,161995,293.916,293.0,-5.71545,293.0,293.005
9563.51,161606,292.734,292.0,-3.90745,292.0,292.003
9666.6,163349,291.756,291.0,-3.47504,291.0,291.004
9643.6,162960,290.647,290.0,-2.12812,290.0,290.012
9686.75,163689.175,289.628,289.0,-1.54142,289.0,289.001
9798.43,165577,288.733,288.0,-1.88169,288.0,287.992
9837.21,166232,287.758,287.0,-1.70775,287.0,286.989
9958.67,168285,286.927,286.0,-2.60188,286.0,285.992
9725.43,164343,285.579,285.0,0.280039,285.0,285.002
9967.8,168439,284.946,284.0,-2.19088,284.0,283.998
9676.43,163515,283.497,283.0,1.28337,283.0,282.992
9858.33,166589,282.797,282.0,-0.742276,282.0,281.996
9891.59,167151,281.873,281.0,-1.12485,281.0,280.997
9807.56,165731,280.764,280.0,-0.189988,280.0,279.997
9782.56,165308,279.763,279.0,0.0232388,279.0,279.007
9815.15,165859,278.847,278.0,-0.516267,278.0,278.005
9731.78,164450,277.746,277.0,0.319796,277.0,277.003
9505.48,160626,276.41,276.0,2.91634,276.0,276.001
9682.0,163608.9,275.738,275.0,0.489558,275.0,274.998
9713.72,164145,274.834,274.0,-0.159387,274.0,273.995
9631.22,162751,273.74,273.0,0.580704,273.0,272.992
9606.22,162328,272.754,272.0,0.550431,272.0,272.002
9637.28,162853,271.854,271.0,-0.192934,271.0,271.001
9555.44,161470,270.768,270.0,0.461645,270.0,269.999
9334.52,157737,269.447,269.0,2.92292,269.0,268.998
9505.67,160629,268.79,268.0,0.303639,268.0,267.997
9480.67,160206,267.815,267.0,-0.676188,267.0,267.007
9262.04,156512,266.498,266.0,-4.31911,266.0,266.007
9485.63,160290,265.931,265.0,-36.3718,265.0,264.998
9213.04,155684,264.516,264.0,-58.6464,264.0,263.991
9380.33,158511,263.866,263.0,-68.1957,263.0,263
9221.79,155831,262.649,262.0,-67.2591,262.0,261.999
9329.78,157656,261.891,261.0,-67.9348,261.0,260.999
9172.32,154995,260.679,260.0,-60.0118,260.0,260.001
9091.04,153622,259.589,259.0,-53.7403,259.0,258.994
9067.04,153216,258.611,258.0,-48.1987,258.0,257.999
9098.85,153754,257.722,257.0,-43.8322,257.0,256.994
9018.28,152392,256.64,256.0,-37.8502,256.0,255.99
9049.62,152922,255.754,255.0,-34.4701,255.0,254.988
8969.52,151568,254.676,254.0,-29.5646,254.0,253.986
8945.52,151162,253.707,253.0,-26.1402,253.0,252.997
8921.52,150757,252.739,252.0,-23.2223,252.0,252.009
8780.25,148369,251.548,251.0,-18.6776,251.0,251
8873.0,149936.8,250.767,250.0,-18.1192,250.0,249.993
8676.36,146614,249.493,249.0,-13.4389,249.0,248.997
8825.24,149130,248.824,248.0,19.7453,248.0,248.002
8466.125,143061,247.259,247.0,218.811,247.0,247.003
8607.36,145448,246.561,246.0,166.859,246.0,245.995
8584.36,145059,245.59,245.0,114.596,245.0,244.996
8561.36,144670,244.62,244.0,74.1428,244.0,243.994
8538.36,144281,243.656,243.0,47.014,243.0,242.992
8458.33,142929,242.601,242.0,31.5365,242.0,241.999
8493.11,143517,241.746,241.0,19.5169,241.0,241.007
8252.53,139451,240.398,240.0,17.0697,240.0,240.006
8448.11,142756,239.829,239.0,8.81048,239.0,239.004
8209.53,138724,238.491,238.0,9.79489,238.0,238
8188.53,138369,237.538,237.0,7.72587,237.0,236.996
8325.63,140686,236.881,236.0,4.17311,236.0,236.003
8146.26,137655,235.661,235.0,5.41928,235.0,235.01
8125.26,137300,234.717,234.0,4.70169,234.0,234.007
7954.875,134420,233.498,233.0,5.93867,233.0,232.996
8083.53,136595,232.82,232.0,3.5759,232.0,231.986
8062.53,136240,231.881,231.0,3.54357,231.0,230.993
7894.29,133397,230.666,230.0,5.07682,230.0,230
8129.94,137379,230.162,229.0,2.14481,229.0,229
7964.82,134588.558,228.916,228.0,3.58968,228.0,227.995
7942.82,134216.758,227.919,227.0,3.62269,227.0,226.996
8023.27,135576.35,227.085,226.0,2.65801,226.0,225.996
8047.3,135983,226.108,225.0,2.28224,225.0,224.99
8068.28,136337,225.067,224.0,1.31041,224.0,223.993
7819.32,132130,223.603,223.0,2.15028,223.0,223
7825.18,132228.642,222.706,222.0,1.08914,222.0,221.996
7617.3,128715.47,221.418,221.0,2.48061,221.0,220.999
7597.3,128377.47,220.455,220.0,2.30969,220.0,219.997
7708.86,130263,219.733,219.0,0.702001,219.0,219.006
7610.59,128602,218.624,218.0,1.28204,218.0,218.008
7411.29,125234,217.32,217.0,2.51549,217.0,216.994
7516.6,127013.64,216.577,216.0,1.1553,216.0,215.99
7372.98,124586,215.388,215.0,1.87197,215.0,214.989
7476.9,126342.71,214.645,214.0,0.648031,214.0,213.991
7334.67,123939,213.459,213.0,1.60774,213.0,212.996
7315.67,123618,212.488,212.0,1.2326,212.0,211.995
7296.67,123297,211.519,211.0,0.994232,211.0,210.998
7277.67,122976,210.554,210.0,0.757873,210.0,210.004
7143.85,120714.1,209.373,209.0,1.676,209.0,209.003
7291.88,123216,208.697,208.0,0.168468,208.0,207.998
7106.85,120089,207.423,207.0,1.27823,207.0,206.994
7088.85,119784.6,206.452,206.0,1.14004,206.0,205.994
7070.85,119480.4,205.488,205.0,1.02747,205.0,204.998
7104.64,120052,204.612,204.0,0.518587,204.0,203.994
7034.17,118860.625,203.545,203.0,0.66594,203.0,202.996
6910.34,116768,202.382,202.0,1.20545,202.0,202.002
7049.32,119117,201.696,201.0,-0.226108,201.0,201.005
6875.34,116176,200.446,200.0,0.755772,200.0,200.008
6810.44,115079,199.374,199.0,0.891218,199.0,198.996
6841.02,115596,198.482,198.0,0.451495,198.0,197.987
6824.02,115309,197.526,197.0,0.193897,197.0,196.999
6709.04,113366,196.385,196.0,0.68769,196.0,196.006
6743.71,113952,195.51,195.0,0.283377,195.0,194.999
6676.39,112814,194.445,194.0,0.491412,194.0,193.998
6710.36,113388,193.567,193.0,0.0152828,193.0,193.004
6551.91,110710,192.33,192.0,0.588984,192.0,192.005
6586.93,111302,191.45,191.0,0.139333,191.0,190.999
6521.27,110193,190.39,190.0,0.250554,190.0,189.997
6506.27,109939,189.441,189.0,0.124505,189.0,189.006
6454.84,109070,188.407,188.0,-0.00763284,188.0,188.003
6390.625,107985,187.348,187.0,0.186396,187.0,186.996
6425.47,108574,186.48,186.0,-0.251188,186.0,185.995
6362.0,107500.9,185.429,185.0,-0.14,185.0,184.999
6267.49,105904,184.323,184.0,0.00565453,184.0,184.009
6302.78,106500,183.446,183.0,-0.524835,183.0,183.008
6164.38,104161,182.245,182.0,0.0476482,182.0,182.002
6200.37,104769,181.363,181.0,-0.326369,181.0,180.992
6139.78,103745,180.308,180.0,-0.957183,180.0,179.986
6127.78,103543,179.348,179.0,-11.8647,179.0,178.995
6091.5,102929.45,178.344,178.0,-72.8259,178.0,177.994
6079.5,102726.65,177.365,177.0,-70.9337,177.0,176.99
6021.08,101739,176.321,176.0,-12.7799,176.0,175.997
5989.11,101199,175.317,175.0,0.786219,175.0,174.995
5932.17,100237,174.258,174.0,1.57268,174.0,173.993
5922.17,100068,173.312,173.0,1.55224,173.0,173.003
5894.21,99595.2,172.313,172.0,1.73145,172.0,172.002
5839.21,98665.8,171.263,171.0,1.82804,171.0,170.999
5814.86,98254.2,170.266,170.0,0.488975,170.0,169.995
5761.47,97351.9,169.216,169.0,0.894324,169.0,168.989
5753.47,97216.7,168.265,168.0,1.09838,168.0,167.998
5732.625,96864.5,167.279,167.0,1.2972,167.0,166.998
5681.33,95997.6,166.234,166.0,1.36165,166.0,165.997
5663.66,95698.98,165.255,165.0,1.25465,165.0,164.995
5614.09,94861.3,164.215,164.0,1.18996,164.0,163.991
5557.15,93899.0,163.16,163.0,1.2838,163.0,162.995
5593.95,94520.9,162.277,162.0,1.0965,162.0,161.993
5546.62,93720.9,161.235,161.0,1.09459,161.0,160.998
5534.82,93521.6,160.258,160.0,0.984899,160.0,160.001
5443.49,91978.1,159.107,159.0,1.33636,159.0,158.995
5485.77,92692.7,158.234,158.0,1.00257,158.0,158.002
5476.68,92538.9,157.255,157.0,0.99702,157.0,157.007
5390.59,91084,156.104,156.0,1.60373,156.0,156.002
5427.35,91705.3,155.203,155.0,3.1662,155.0,154.996
5386.07,91007.7,154.144,154.0,9.73574,154.0,153.992
5384.07,90973.9,153.178,153.0,21.7411,153.0,153.001
5342.46,90270.7,152.136,152.0,28.9967,152.0,152.006
5378.33,90876.9,151.244,151.0,23.5227,151.0,151.001
5302.5,89595.35,150.117,150.0,13.5294,150.0,149.997
5302.5,89595.35,149.171,149.0,6.89608,149.0,149.001
5267.1,88997.1,148.148,148.0,3.33301,148.0,148.008
5269.07,89030.4,147.205,147.0,1.39813,147.0,147.005
5203.21,87917.3,146.104,146.0,0.699703,146.0,146
5175.08,87442,145.088,145.0,0.196011,145.0,144.998
5179.08,87509.6,144.148,144.0,-0.0654464,144.0,144
5186.45,87634.1,143.211,143.0,-0.445098,143.0,143.003
5102.82,86220.7,142.064,142.0,-0.130206,142.0,141.997
5109.82,86339,141.116,141.0,-0.306671,141.0,140.997
5122.0,86544.9,140.166,140.0,-0.462185,140.0,139.997
5098.63,86149.9,139.149,139.0,-0.427286,139.0,139
5088.56,85979.7,138.179,138.0,-0.455117,138.0,138.008
5052.88,85376.8,137.138,137.0,-0.276533,137.0,137.006
5070.4,85672.86,136.185,136.0,-0.426539,136.0,136.002
5061.16,85516.8,135.17,135.0,-0.490534,135.0,135
5053.83,85392.8,134.157,134.0,-0.544802,134.0,134.001
5030.33,84995.6,133.101,133.0,-0.522876,133.0,133.003
5011.29,84673.8,132.059,132.0,-0.457057,132.0,131.997
5012.24,84689.9,131.075,131.0,-0.603935,131.0,130.994
4976.68,84088.9,129.992,130.0,-0.491,130.0,129.998
4992.2,84351.2,129.019,129.0,-0.595463,129.0,128.996
4979.125,84130.3,127.982,128.0,-0.521276,128.0,127.995
4966.36,83914.6,126.941,127.0,-0.500344,127.0,126.998
4981.98,84178.6,125.969,126.0,-0.608667,126.0,126.002
4997.58,84442.2,124.977,125.0,-0.63497,125.0,125.003
4989.51,84305.9,123.917,124.0,-0.57861,124.0,123.999
5022.23,84858.8,122.964,123.0,-0.77458,123.0,123
5031.33,85012.6,121.955,122.0,-0.993835,122.0,122.002
5053.17,85381.6,120.922,121.0,-0.941811,121.0,121.005
5086.21,85940.1,119.939,120.0,-0.77546,120.0,119.997
5102.26,86211.4,118.927,119.0,-0.446801,119.0,118.994
5119.99,86511,117.909,118.0,-0.400944,118.0,117.999
5153.59,87078.7,116.902,117.0,-0.357491,117.0,117
5195.07,87779.8,115.906,116.0,-0.373397,116.0,115.996
5261.08,88895.3,114.92,115.0,-0.437057,115.0,115.005
5310.37,89728.4,113.9,114.0,-0.364524,114.0,113.99
5322.22,89928.6,112.871,113.0,-0.320773,113.0,112.977
5394.66,91152.9,111.866,112.0,-0.40565,112.0,111.988
5532.28,93478.6,110.855,111.0,-0.408009,111.0,110.981
5689.0,96127.2,109.83,110.0,-0.381981,110.0,109.962
6008.5,101526.75,108.898,109.0,-0.397387,109.0,109.03

File: mean_H2O-NH3_4.8873g.csv
Index,Time(s),Furnace Temperature(K),Sample Temperature(K),HeatFlow(mW),T(K),Sample Temperature(K)_2
81.0,1352.0,299.456,300.0,11.8745,300.0,299.987
13928.2,235369,299.057,298.0,0.380917,298.0,298.218
10518.3,177742.37,296.675,296.0,-7.56281,296.0,296.029
9616.88,162508,294.781,294.0,-4.81459,294.0,294.014
9697.21,163866,292.641,292.0,-2.49335,292.0,291.995
9852.98,166498,290.731,290.0,-2.26902,290.0,289.998
10014.4,169227,288.906,288.0,-2.82105,288.0,287.991
9818.19,165911,286.602,286.0,0.173474,286.0,285.997
9913.89,167528,284.766,284.0,-0.63369,284.0,283.991
9863.89,166683,282.74,282.0,-0.025095,282.0,281.999
10081.8,170365.52,281.16,280.0,-3.38641,280.0,280
9763.67,164989,278.734,278.0,-3.08805,278.0,278.01
9713.67,164144,276.729,276.0,-130.064,276.0,275.995
9719.33,164240,274.822,274.0,-264.708,274.0,274.01
9667.33,163361,272.788,272.0,-181.498,272.0,272.002
9559.56,161540,270.686,270.0,-104.165,270.0,269.996
9508.78,160681,268.7,268.0,-59.9329,268.0,267.998
9458.0,159823.3,266.726,266.0,-34.1825,266.0,266.001
9407.22,158965,264.754,264.0,-18.963,264.0,264.005
9356.67,158111,262.763,262.0,-9.50784,262.0,261.992
9174.36,155030,260.577,260.0,70.2859,260.0,260.001
9069.15,153252,258.499,258.0,339.117,258.0,258
9020.39,152428,256.517,256.0,253.803,256.0,255.995
9027.43,152547,254.653,254.0,98.5086,254.0,253.995
8923.63,150792,252.607,252.0,34.9216,252.0,251.996
8874.87,149968,250.655,250.0,13.0504,250.0,249.993
8711.25,147203.225,248.502,248.0,7.11189,248.0,247.995
8608.17,145461,246.456,246.0,5.00292,246.0,245.995
8617.0,145610.4,244.614,244.0,3.28912,244.0,244.002
8515.17,143889,242.564,242.0,2.96314,242.0,241.998
8468.43,143099,240.606,240.0,2.30951,240.0,239.992
8422.43,142322,238.672,238.0,1.88743,238.0,238.014
8375.94,141536,236.702,236.0,1.47453,236.0,236
8230.57,139080,234.57,234.0,1.88295,234.0,233.994
8283.96,139982,232.791,232.0,0.806131,232.0,231.998
7997.26,135136.794,230.41,230.0,2.20742,230.0,229.999
8042.48,135901,228.624,228.0,1.34259,228.0,227.999
7998.75,135162,226.693,226.0,0.937616,226.0,226.007
7813.57,132032,224.477,224.0,1.47278,224.0,223.993
7771.57,131323,222.54,222.0,1.35864,222.0,222.001
7596.6,128365.64,220.346,220.0,1.86548,220.0,219.989
7556.3,127684.57,218.419,218.0,1.55662,218.0,217.997
7516.0,127003.5,216.504,216.0,1.16336,216.0,216.016
7475.6,126321,214.543,214.0,0.696093,214.0,213.988
7314.04,123590,212.394,212.0,1.28069,212.0,212.004
7395.5,124967.05,210.662,210.0,0.414434,210.0,209.995
7175.96,121257,208.385,208.0,1.16938,208.0,208
7198.67,121641,206.564,206.0,0.399381,206.0,206.006
7048.87,119109,204.394,204.0,0.704563,204.0,204.001
7012.19,118489.15,202.446,202.0,0.714287,202.0,201.994
6923.17,116985,200.422,200.0,0.605851,200.0,199.999
6836.98,115528,198.372,198.0,0.623215,198.0,197.992
6802.32,114942,196.427,196.0,0.221171,196.0,195.988
6671.57,112733,194.317,194.0,0.383418,194.0,194.005
6638.93,112181,192.369,192.0,0.277145,192.0,191.992
6655.91,112468,190.529,190.0,-0.363184,190.0,190.003
6485.27,109584,188.335,188.0,-0.135697,188.0,188.002
6454.64,109066,186.407,186.0,-0.310991,186.0,186
6389.58,107967,184.412,184.0,-0.21536,184.0,183.998
6233.32,105326,182.249,182.0,0.184748,182.0,182.001
6206.7,104876,180.312,180.0,-0.171562,180.0,179.989
6106.45,103182,178.251,178.0,-6.66029,178.0,178.004
6081.84,102766,176.346,176.0,-7.02273,176.0,176.003
5921.33,100054,174.183,174.0,1.22469,174.0,173.995
5882.89,99403.9,172.266,172.0,-0.315393,172.0,172.002
5863.47,99075.7,170.357,170.0,-0.710752,170.0,169.995
5741.27,97010.6,168.251,168.0,-0.0592245,168.0,168.001
5668.89,95787.3,166.212,166.0,0.133217,166.0,165.994
5600.95,94639.2,164.181,164.0,0.0554672,164.0,163.998
5537.77,93571.4,162.154,162.0,0.0293512,162.0,161.998
5520.94,93287,160.216,160.0,0.0262702,160.0,159.999
5511.48,93127.1,158.248,158.0,1.03414,158.0,157.996
5547.77,93740.5,156.322,156.0,3.38094,156.0,156
5492.55,92807.2,154.259,154.0,2.98349,154.0,153.994
5440.79,91932.5,152.17,152.0,1.55903,152.0,151.996
5433.32,91806.3,150.244,150.0,0.247947,150.0,149.996
5349.5,90389.65,148.144,148.0,-0.0940882,148.0,147.997
5346.01,90330.7,146.252,146.0,-0.479559,146.0,146.002
5240.75,88551.7,144.106,144.0,-0.265042,144.0,144
5212.72,88078,142.139,142.0,-0.430499,142.0,142.003
5185.58,87619.3,140.107,140.0,-0.368258,140.0,139.998
5140.43,86856.3,138.112,138.0,-0.455329,138.0,138.004
5072.73,85712.25,136.019,136.0,-0.345696,136.0,135.996
5094.1,86073.39,134.113,134.0,-0.55096,134.0,134
5089.22,85991,132.054,132.0,-0.634417,132.0,132.001
5049.21,85314.8,130.022,130.0,-0.553712,130.0,130.001
4989.84,84311.4,128.006,128.0,-0.562813,128.0,127.998
4953.65,83699.8,125.97,126.0,-0.615652,126.0,125.997
4961.96,83840.2,123.968,124.0,-0.661455,124.0,123.991
4960.26,83811.6,121.936,122.0,-0.677783,122.0,121.994
4986.38,84252.9,119.983,120.0,-0.735479,120.0,120.001
5028.53,84965.3,117.952,118.0,-0.599826,118.0,117.995
5061.44,85521.4,115.921,116.0,-0.509945,116.0,115.996
5124.71,86590.7,113.934,114.0,-0.442275,114.0,113.995
5241.88,88570.9,111.991,112.0,-0.458012,112.0,111.994
5356.8,90513.1,109.992,110.0,-0.468271,110.0,109.999
5503.78,92996.9,107.931,108.0,-0.450618,108.0,107.975
5968.0,100842.3,106.192,106.0,-0.462911,106.0,106.33