Folder: NH3_Calorimetry/i_data/0.25Kmin

Note: README.md
# <u>Calorimetry Analysis</u>
*Repository for analysis specific heat capacity analysis of the calorimetry data of H2O-NH3 systems*

Folder Structure:
- **i_data**: all experimental data
  - **26C**: data with T range up to 26 C (299.15 K)
  - **46C**: data with T range up to 26 C (299.15 K)
  - **calibration_ice**: data for calibration of calorimeter
- **i_data_literature**: all literature data
  - **lit_cp**: past NH3-H2O specific heat measurements
- **i_data_processed**: processed experimental data
  - **not_smoothed**: data that has not undergone average smoothing (used for plotting)
- **o_finalPlots**: plots used in the manuscript
- **o_supplementaryPlots**: plots used in the supplementary information
- **z_scripts**: all scripts used in analysis
- **z_unorganized_archive**: folders pre-organization.

File: Blank.csv
Blank for NH3-H2O Specific Heat - Large HF,,,,
Creation Date : 6/13/2022 3:40:40 PM,,,,
User : admin,,,,
,,,,
HeatFlow :,,,,
 Initial Mass : 0 mg,,,,
 Molar Mass : N/A,,,,
,,,,
Index,Time(s),Furnace Temperature(K),Sample Temperature(K),HeatFlow(mW)
1,0,297.042,297.237,3.306932
59,672.8,296.07,297.094,-0.131767
117,1345.6,294.06,296.619,-0.286003
175,2018.4,290.739,295.603,-0.175837
233,2691.2,286.205,293.855,0.060326
291,3364,281.274,291.379,0.259045
349,4036.8,276.455,288.309,0.585721
407,4709.6,271.815,284.839,0.839936
465,5382.4,267.375,281.127,1.040367
523,6055.2,263.142,277.286,1.322778
581,6728,259.064,273.396,1.775568
639,7400.8,255.1,269.501,1.888182
697,8073.6,251.261,265.628,2.11375
755,8746.4,247.538,261.804,2.294583
813,9419.2,243.93,258.041,2.072725
871,10092,240.43,254.352,2.052419
929,10764.8,237.032,250.743,1.984481
987,11437.6,233.721,247.215,1.868
1045,12110.4,230.496,243.77,1.535675
1103,12783.2,227.349,240.403,1.087113
1161,13456,224.282,237.117,1.411325
1219,14128.8,221.294,233.907,1.219171
1277,14801.6,218.382,230.774,0.127379
1335,15474.4,215.546,227.717,1.48866
1393,16147.2,212.787,224.734,0.020772
1451,16820,210.097,221.826,0.595312
1509,17492.8,207.466,218.987,0.694355
1567,18165.6,204.907,216.216,-0.205786
1625,18838.4,202.44,213.518,-0.203796
1683,19511.2,200.014,210.885,0.003181
1741,20184,197.677,208.318,-0.823463
1799,20856.8,195.43,205.825,0.761233
1857,21529.6,193.21,203.397,0.081107
1915,22202.4,191.071,201.034,0.626795
1973,22875.2,188.959,198.731,0.902086
2031,23548,186.93,196.486,0.074442
2089,24220.8,184.963,194.304,0.271395
2147,24893.6,183.039,192.179,-0.127776
2205,25566.4,181.157,190.109,-0.335402
2263,26239.2,179.323,188.09,1.152867
2321,26912,177.535,186.122,1.179611
2379,27584.8,175.781,184.2,0.632955
2437,28257.6,174.061,182.324,0.897671
2495,28930.4,172.381,180.489,1.419106
2553,29603.2,170.76,178.698,0.635706
2611,30276,169.187,176.951,1.262293
2669,30948.8,167.641,175.248,0.705368
2727,31621.6,166.126,173.584,1.385647
2785,32294.4,164.637,171.956,1.600377
2843,32967.2,163.182,170.364,0.439108
2901,33640,161.776,168.808,1.15766
2959,34312.8,160.405,167.288,0.966311
3017,34985.6,159.054,165.806,1.235405
3075,35658.4,157.767,164.358,0.755388
3133,36331.2,156.441,162.943,0.967675
3191,37004,155.184,161.552,0.97323
3249,37676.8,153.97,160.199,0.91952
3307,38349.6,152.724,158.868,0.903681
3365,39022.4,151.533,157.567,0.916578
3423,39695.2,150.241,156.275,1.203733
3481,40368,149.061,154.997,0.779619
3539,41040.8,147.972,153.752,0.763181
3597,41713.6,146.856,152.537,0.933835
3655,42386.4,145.8,151.346,0.523586
3713,43059.2,144.682,150.181,0.7023
3771,43732,143.571,149.024,0.688341
3829,44404.8,142.427,147.875,0.723889
3887,45077.6,141.424,146.74,1.008253
3945,45750.4,140.435,145.637,0.799792
4003,46423.2,139.506,144.563,0.841126
4061,47096,138.559,143.515,0.735425
4119,47768.8,137.585,142.489,0.734133
4177,48441.6,136.677,141.477,0.570038
4235,49114.4,135.774,140.486,0.456505
4293,49787.2,134.948,139.523,0.589029
4351,50460,134.169,138.591,0.301032
4409,51132.8,133.394,137.69,0.621942
4467,51805.6,132.575,136.809,0.550024
4525,52478.4,131.813,135.95,0.310862
4583,53151.2,130.997,135.099,0.505316
4641,53824,130.253,134.268,0.084695
4699,54496.8,129.498,133.447,0.283875
4757,55169.6,128.78,132.649,0.341319
4815,55842.4,128.053,131.861,0.345277
4873,56515.2,127.331,131.091,0.145607
4931,57188,126.596,130.324,0.119289
4989,57860.8,125.969,129.577,0.212263
5047,58533.6,125.271,128.844,0.298886
5105,59206.4,124.679,128.128,0.068141
5163,59879.2,124.035,127.435,0.109145
5221,60552,123.381,126.748,0.183588
5279,61224.8,122.846,126.076,0.191039
5337,61897.6,122.369,125.444,0.05215
5395,62570.4,121.79,124.827,-0.005629
5453,63243.2,121.257,124.221,-0.011865
5511,63916,120.74,123.635,0.142049
5569,64588.8,120.207,123.056,-0.183259
5627,65261.6,119.707,122.493,-0.111089
5685,65934.4,119.226,121.941,-0.159912
5743,66607.2,118.727,121.404,-0.207623
5801,67280,118.246,120.872,-0.264891
5859,67952.8,117.828,120.361,-0.153151
5917,68625.6,117.371,119.859,-0.269545
5975,69298.4,117.03,119.381,-0.297782
6033,69971.2,116.627,118.92,-0.359476
6091,70644,116.271,118.478,-0.354961
6149,71316.8,115.963,118.055,-0.357435
6207,71989.6,115.67,117.66,-0.331856
6265,72662.4,115.219,117.265,-0.386818
6323,73335.2,114.835,116.865,-0.407126
6381,74008,114.502,116.475,-0.316997
6439,74680.8,114.192,116.095,-0.352075
6497,75353.6,113.861,115.731,-0.338323
6555,76026.4,113.552,115.371,-0.367902
6613,76699.2,113.281,115.028,-0.374176
6671,77372,113.054,114.702,-0.418032
6729,78044.8,112.8729,114.4,-0.353512
6787,78717.6,112.697,114.121,-0.395876
6845,79390.4,112.518,113.864,-0.38449
6903,80063.2,112.346,113.618,-0.418188
6961,80736,112.086,113.383,-0.393689
7019,81408.8,111.822,113.137,-0.379477
7077,82081.6,111.732,112.907,-0.393193
7135,82754.4,111.525,112.695,-0.399277
7193,83427.2,111.398,112.487,-0.398649
7251,84100,111.286,112.301,-0.403463
7309,84772.8,111.177,112.126,-0.409789
7367,85445.6,111.066,111.966,-0.411796
7425,86118.4,110.959,111.813,-0.414397
7483,86791.2,110.889,111.675,-0.420344
7541,87464,110.818,111.548,-0.477625
7599,88136.8,110.743,111.431,-0.492807
7657,88809.6,110.678,111.324,-0.476862
7715,89482.4,110.614,111.224,-0.479984
7773,90155.2,110.551,111.132,-0.47105
7831,90828,110.499,111.045,-0.471348
7889,91500.8,110.454,110.966,-0.474398
7947,92173.6,110.399,110.893,-0.479906
8005,92846.4,110.344,110.822,-0.47799
8063,93519.2,110.293,110.756,-0.481624
8121,94192,110.245,110.692,-0.496084
8179,94864.8,111.881,110.689,-0.767511
8237,95537.6,115.169,111.226,-1.336661
8295,96210.4,117.972,112.223,-1.710244
8353,96883.2,120.783,113.569,-1.981319
8411,97556,123.593,115.1966,-2.214564
8469,98228.8,126.403,117.052,-2.403558
8527,98901.6,129.213,119.091,-2.550871
8585,99574.4,132.013,121.275,-2.653558
8643,100247.2,134.82,123.5745,-2.720941
8701,100920,137.627,125.968,-2.795087
8759,101592.8,140.432,128.439,-2.835474
8817,102265.6,143.234,130.97,-2.843337
8875,102938.4,146.038,133.549,-2.882063
8933,103611.2,148.843,136.171,-2.868742
8991,104284,151.648,138.825,-2.889425
9049,104956.8,154.451,141.506,-2.869752
9107,105629.6,157.255,144.21,-2.853665
9165,106302.4,160.059,146.935,-2.841554
9223,106975.2,162.864,149.678,-2.815576
9281,107648,165.672,152.435,-2.795025
9339,108320.8,168.469,155.205,-2.759296
9397,108993.6,171.274,157.984,-2.693801
9455,109666.4,174.076,160.773,-2.653946
9513,110339.2,176.88,163.568,-2.584876
9571,111012,179.689,166.369,-2.508846
9629,111684.8,182.488,169.176,-2.467768
9687,112357.6,185.291,171.987,-2.400846
9745,113030.4,188.098,174.8,-2.352153
9803,113703.2,190.899,177.617,-2.242212
9861,114376,193.701,180.436,-2.136122
9919,115048.8,196.506,183.255,-2.082218
9977,115721.6,199.311,186.077,-1.969866
10035,116394.4,202.114,188.898,-1.991296
10093,117067.2,204.918,191.722,-1.82115
10151,117740,207.722,194.547,-1.756541
10209,118412.8,210.524,197.375,-1.637598
10267,119085.6,213.327,200.208,-1.66751
10325,119758.4,216.131,203.045,-1.628786
10383,120431.2,218.931,205.885,-1.297853
10441,121104,221.736,208.726,-1.482454
10499,121776.8,224.54,211.5702,-1.402405
10557,122449.6,227.345,214.418,-1.451571
10615,123122.4,230.148,217.267,-1.292057
10673,123795.2,232.95,220.118,-1.058308
10731,124468,235.752,222.968,-0.934189
10789,125140.8,238.553,225.819,-0.849398
10847,125813.6,241.361,228.671,-0.949217
10905,126486.4,244.165,231.523,-0.899165
10963,127159.2,246.969,234.375,-0.740343
11021,127832,249.774,237.231,-0.909446
11079,128504.8,252.571,240.088,-0.668721
11137,129177.6,255.379,242.94,-0.540043
11195,129850.4,258.179,245.794,-0.237827
11253,130523.2,260.981,248.648,-0.237359
11311,131196,263.786,251.498,0.008944
11369,131868.8,266.593,254.351,-0.248514
11427,132541.6,269.399,257.207,0.150083
11485,133214.4,272.199,260.065,0.342741
11543,133887.2,275.002,262.919,0.894171
11601,134560,277.801,265.773,0.723532
11659,135232.8,280.6075,268.624,0.623888
11717,135905.6,283.411,271.476,0.775276
11775,136578.4,286.215,274.328,0.751677
11833,137251.2,289.02,277.18,0.973637
11891,137924,291.819,280.033,1.016551
11949,138596.8,294.628,282.884,1.420803
12007,139269.6,297.43,285.7339,1.211906
12065,139942.4,299.292,288.547,1.454727
12123,140615.2,299.19,290.846,1.453835
12181,141288,299.18,292.59,1.971317
12239,141960.8,299.172,293.913,1.822954
12297,142633.6,299.169,294.915,2.225509
12355,143306.4,299.166,295.689,2.993968
12413,143979.2,299.163,296.28,3.294271
12471,144652,299.16,296.733,2.569262
12529,145324.8,299.156,297.075,2.543647
12587,145997.6,299.156,297.334,3.286173
12645,146670.4,299.153,297.533,2.83064
12703,147343.2,299.154,297.682,3.321786
12761,148016,299.153,297.796,3.680218
12819,148688.8,299.153,297.882,3.357012
12877,149361.6,299.151,297.948,2.212058
12935,150034.4,299.152,297.997,2.637795
12993,150707.2,299.15,298.035,2.975989
13051,151380,299.152,298.064,3.080258
13109,152052.8,299.149,298.085,3.303309
13167,152725.6,299.151,298.101,3.166129
13225,153398.4,299.148,298.114,3.24967
13283,154071.2,299.149,298.123,2.7667
13341,154744,299.152,298.13,2.832412
13399,155416.8,299.15,298.134,3.426371
13457,156089.6,299.151,298.139,3.259542
13515,156762.4,299.149,298.142,2.672773
13573,157435.2,299.151,298.144,3.705733
13631,158108,299.151,298.147,2.385131
13689,158780.8,299.151,298.147,3.273589
13747,159453.6,299.15,298.149,3.519509
13805,160126.4,299.15,298.151,3.444679
13863,160799.2,299.151,298.151,3.151214
13921,161472,299.151,298.152,3.058884
13979,162144.8,299.151,298.151,3.961242
14037,162817.6,299.148,298.152,2.907001
14095,163490.4,299.151,298.153,3.261902
14153,164163.2,299.147,298.153,3.413266
14211,164836,299.148,298.152,3.587631
14269,165508.8,299.147,298.15,3.602912
14327,166181.6,299.15,298.149,2.809362
14385,166854.4,299.15,298.148,3.941006
14443,167527.2,299.152,298.149,4.183153
14501,168200,299.15,298.15,3.173184
14559,168872.8,299.154,298.153,3.312184
14617,169545.6,299.154,298.157,2.872322
14675,170218.4,299.151,298.16,2.906121
14733,170891.2,299.151,298.163,3.799709
14791,171564,299.15,298.165,3.422836
14849,172236.8,299.148,298.166,3.779274
14897,172793.6,299.152,298.167,2.850842

File: H2O-NH3_2wt%.csv
NH3-H2O 2wt%  Specific Heat - Large HF,,,,
Creation Date : 6/23/2022 3:57:25 PM,,,,
User : admin,,,,
,,,,
HeatFlow :,,,,
 Initial Mass : 4874 mg,,,,
 Molar Mass : 17 g/mol,,,,
,,,,
Index,Time(s),Furnace Temperature(K),Sample Temperature(K),HeatFlow(mW)
1,0,297.956,298.01,31.4431
58,661.2,297.604,297.973,4.172717
115,1322.4,296.487,297.7689,4.465582
172,1983.6,294.474,297.233,12.5893
229,2644.8,291.2,296.191,26.4534
286,3306,286.669,294.435,46.86306
343,3967.2,281.808,291.975,69.7441
400,4628.4,277.017,288.946,89.6861
457,5289.6,272.42,285.519,104.71
514,5950.8,268.013,281.854,114.466
571,6612,263.8,278.058,120.369
628,7273.2,259.768,274.21,123.658
685,7934.4,255.91,270.365,124.679
742,8595.6,252.201,266.564,124.6263
799,9256.8,248.608,262.824,123.361
856,9918,245.136,259.162,1320.29
913,10579.2,241.809,255.719,1111.78
970,11240.4,238.577,252.235,248.812
1027,11901.6,235.408,248.802,105.977
1084,12562.8,232.316,245.454,79.7692
1141,13224,229.304,242.191,69.992
1198,13885.2,226.36,239.012,63.9749
1255,14546.4,223.487,235.911,59.0131
1312,15207.6,220.687,232.886,55.366
1369,15868.8,217.954,229.935,52.4779
1426,16530,215.287,227.055,49.4887
1483,17191.2,212.684,224.244,46.6879
1540,17852.4,210.136,221.499,44.5221
1597,18513.6,207.646,218.817,42.365
1654,19174.8,205.232,216.196,40.0743
1711,19836,202.893,213.644,38.7878
1768,20497.2,200.607,211.152,37.1769
1825,21158.4,198.379,208.722,35.256
1882,21819.6,196.184,206.349,33.7563
1939,22480.8,194.055,204.032,32.3197
1996,23142,191.9812,201.769,31.4447
2053,23803.2,189.951,199.559,30.3455
2110,24464.4,187.976,197.402,28.6827
2167,25125.6,186.036,195.294,27.7378
2224,25786.8,184.131,193.234,26.7464
2281,26448,182.251,191.215,26.16413
2338,27109.2,180.419,189.2358,24.9307
2395,27770.4,178.678,187.303,23.7909
2452,28431.6,176.988,185.422,23.5174
2509,29092.8,175.338,183.591,22.2368
2566,29754,173.692,181.8,21.3849
2623,30415.2,172.085,180.049,20.6283
2680,31076.4,170.497,178.334,20.5541
2737,31737.6,168.907,176.652,20.203
2794,32398.8,167.244,174.982,19.5626
2851,33060,165.596,173.32,19.0059
2908,33721.2,164.093,171.679,19.2313
2965,34382.4,162.659,170.078,17.7921
3022,35043.6,161.279,168.52,17.2583
3079,35704.8,159.951,167.008,17.0739
3136,36366,158.642,165.535,16.5528
3193,37027.2,157.377,164.103,16.0134
3250,37688.4,156.123,162.707,14.9166
3307,38349.6,154.863,161.341,14.7298
3364,39010.8,153.667,160.005,14.1773
3421,39672,152.513,158.702,13.5539
3478,40333.2,151.392,157.434,13.1036
3535,40994.4,150.278,156.198,13.3961
3592,41655.6,149.152,154.986,12.3501
3649,42316.8,148.069,153.796,12.2157
3706,42978,147.036,152.633,11.7396
3763,43639.2,146.03,151.5,11.7785
3820,44300.4,145.053,150.396,11.0182
3877,44961.6,144.085,149.318,10.5367
3934,45622.8,143.067,148.258,10.6229
3991,46284,142.102,147.21,10.4593
4048,46945.2,141.179,146.185,10.1748
4105,47606.4,140.167,145.173,9.738907
4162,48267.6,139.112,144.156,9.818039
4219,48928.8,138.157,143.141,9.851472
4276,49590,137.339,142.153,9.199067
4333,50251.2,136.559,141.202,9.158622
4390,50912.4,135.751,140.283,8.425847
4447,51573.6,134.972,139.387,8.15044
4504,52234.8,134.168,138.511,8.016524
4561,52896,133.41,137.654,7.816179
4618,53557.2,132.703,136.822,7.327368
4675,54218.4,131.942,136.011,7.057759
4732,54879.6,131.05,135.194,7.178329
4789,55540.8,130.132,134.361,7.242194
4846,56202,129.301,133.519,7.509111
4903,56863.2,128.636,132.694,7.21131
4960,57524.4,128.057,131.914,6.851076
5017,58185.6,127.383,131.159,6.509346
5074,58846.8,126.725,130.422,6.215844
5131,59508,126.152,129.706,5.982883
5188,60169.2,125.576,129.02,5.749795
5245,60830.4,124.868,128.343,5.642207
5302,61491.6,124.133,127.656,5.599444
5359,62152.8,123.415,126.961,5.750033
5416,62814,122.731,126.265,5.633953
5473,63475.2,122.168,125.58,5.484086
5530,64136.4,121.677,124.932,5.228042
5587,64797.6,121.115,124.302,5.006742
5644,65458.8,120.591,123.69,4.77019
5701,66120,120.044,123.089,4.712216
5758,66781.2,119.533,122.506,4.556
5815,67442.4,119.071,121.937,4.421188
5872,68103.6,118.758,121.403,3.998912
5929,68764.8,118.545,120.922,3.592485
5986,69426,118.341,120.492,3.210835
6043,70087.2,118.12,120.101,2.941471
6100,70748.4,117.914,119.745,2.675385
6157,71409.6,117.68,119.414,2.458632
6214,72070.8,117.389,119.095,2.356663
6271,72732,117.083,118.781,2.314472
6328,73393.2,116.822,118.47,2.257111
6385,74054.4,116.48,118.166,2.238485
6442,74715.6,116.084,117.843,2.350175
6499,75376.8,115.838,117.523,2.322771
6556,76038,115.532,117.212,2.243688
6613,76699.2,115.309,116.908,2.176918
6670,77360.4,115.059,116.622,2.033054
6727,78021.6,114.7293,116.329,2.048704
6784,78682.8,114.567,116.047,2.021077
6841,79344,114.334,115.783,1.818772
6898,80005.2,114.13,115.524,1.772679
6955,80666.4,113.979,115.282,1.611793
7012,81327.6,113.798,115.053,1.474849
7069,81988.8,113.654,114.837,1.347254
7126,82650,113.513,114.634,1.220683
7183,83311.2,113.38,114.444,1.121675
7240,83972.4,113.259,114.265,1.018099
7297,84633.6,113.146,114.097,0.914499
7354,85294.8,113.04,113.941,0.809986
7411,85956,112.916,113.793,0.740614
7468,86617.2,112.795,113.648,0.705619
7525,87278.4,112.691,113.511,0.638978
7582,87939.6,112.588,113.378,0.592225
7639,88600.8,112.504,113.253,0.51254
7696,89262,112.414,113.135,0.458236
7753,89923.2,112.325,113.023,0.402912
7810,90584.4,112.24,112.914,0.378554
7867,91245.6,112.16,112.811,0.333421
7924,91906.8,112.0819,112.713,0.292787
7981,92568,112.001,112.617,0.253007
8038,93229.2,111.915,112.524,0.235156
8095,93890.4,111.826,112.432,0.233172
8152,94551.6,111.736,112.341,0.226597
8209,95212.8,113.31,112.303,-0.35054
8266,95874,116.575,112.789,-4.546392
8323,96535.2,119.325,113.722,-8.300366
8380,97196.4,122.087,114.996,-11.2785
8437,97857.6,124.853,116.547,-13.8041
8494,98518.8,127.611,118.327,-16.0343
8551,99180,130.37,120.287,-18.1428
8608,99841.2,133.128,122.395,-20.2954
8665,100502.4,135.888,124.623,-21.4325
8722,101163.6,138.64,126.947,-22.32386
8779,101824.8,141.399,129.349,-23.254
8836,102486,144.153,131.816,-24.1312
8893,103147.2,146.909,134.336,-24.9223
8950,103808.4,149.667,136.9,-25.6552
9007,104469.6,152.421,139.499,-26.305
9064,105130.8,155.175,142.127,-26.9036
9121,105792,157.935,144.779,-27.4802
9178,106453.2,160.681,147.453,-27.9751
9235,107114.4,163.445,150.14,-28.1689
9292,107775.6,166.199,152.845,-27.5223
9349,108436.8,168.948,155.557,-24.4606
9406,109098,171.715,158.28,-18.5737
9463,109759.2,174.46,161.011,-13.8472
9520,110420.4,177.223,163.748,-21.1611
9577,111081.6,179.972,166.491,-28.5209
9634,111742.8,182.729,169.237,-30.2399
9691,112404,185.492,171.989,-60.7371
9748,113065.2,188.238,174.748,-20.8433
9805,113726.4,190.998,177.517,-51.9875
9862,114387.6,193.749,180.289,-41.9385
9919,115048.8,196.506,183.069,-34.8182
9976,115710,199.265,185.855,-34.7799
10033,116371.2,202.015,188.646,-35.2546
10090,117032.4,204.77,191.44,-35.7194
10147,117693.6,207.528,194.235,-36.2021
10204,118354.8,210.28,197.034,-36.7428
10261,119016,213.04,199.835,-37.2339
10318,119677.2,215.788,202.639,-37.7969
10375,120338.4,218.55,205.442,-38.4217
10432,120999.6,221.302,208.249,-39.0127
10489,121660.8,224.056,211.056,-39.5141
10546,122322,226.816,213.864,-40.22574
10603,122983.2,229.566,216.674,-40.9571
10660,123644.4,232.325,219.482,-41.6706
10717,124305.6,235.078,222.291,-42.5188
10774,124966.8,237.83,225.101,-43.3851
10831,125628,240.59,227.908,-44.3384
10888,126289.2,243.343,230.717,-45.3945
10945,126950.4,246.099,233.526,-46.6384
11002,127611.6,248.854,236.336,-47.9783
11059,128272.8,251.609,239.147,-49.8087
11116,128934,254.361,241.956,-51.7697
11173,129595.2,257.116,244.764,-54.0445
11230,130256.4,259.877,247.572,-57.1842
11287,130917.6,262.629,250.381,-61.15
11344,131578.8,265.383,253.187,-66.4476
11401,132240,268.133,255.99,-73.9067
11458,132901.2,270.892,258.79,-84.7767
11515,133562.4,273.643,261.586,-101.473
11572,134223.6,276.4,264.38,-128.852
11629,134884.8,279.157,267.172,-175.617
11686,135546,281.901,269.958,-257.155
11743,136207.2,284.665,272.73,-400.955
11800,136868.4,287.422,275.488,-590.769
11857,137529.6,290.178,278.242,-704.135
11914,138190.8,292.921,281.023,-236.227
11971,138852,295.678,283.833,-107.892
12028,139513.2,298.442,286.64,-91.4455
12085,140174.4,299.216,289.294,-86.8477
12142,140835.6,299.182,291.349,-72.0552
12199,141496.8,299.167,292.9131,-55.7521
12256,142158,299.157,294.104,-42.4711
12313,142819.2,299.16,295.007,-32.06798
12370,143480.4,299.161,295.705,-24.4188
12427,144141.6,299.148,296.238,-18.58214
12484,144802.8,299.1444,296.644,-13.9789
12541,145464,299.159,296.949,-10.3989
12598,146125.2,299.154,297.182,-7.731995
12655,146786.4,299.151,297.362,-5.771299
12712,147447.6,299.149,297.499,-4.217596
12769,148108.8,299.157,297.602,-3.00353
12826,148770,299.15,297.68,-2.088333
12883,149431.2,299.139,297.738,-1.400268
12940,150092.4,299.155,297.781,-0.806202
12997,150753.6,299.158,297.814,-0.444633
13054,151414.8,299.151,297.844,-0.238447
13111,152076,299.158,297.871,-0.143682
13168,152737.2,299.164,297.896,-0.00309
13225,153398.4,299.162,297.922,0.00618
13282,154059.6,299.154,297.948,0.030554
13339,154720.8,299.156,297.97,0.083592
13396,155382,299.156,297.991,0.108993
13453,156043.2,299.157,298.008,0.208199
13510,156704.4,299.16,298.026,0.245441
13567,157365.6,299.157,298.042,0.314778
13624,158026.8,299.157,298.059,0.298296
13681,158688,299.161,298.077,0.321804
13738,159349.2,299.163,298.097,0.203719
13795,160010.4,299.163,298.121,0.147594
13852,160671.6,299.163,298.143,0.231684
13909,161332.8,299.158,298.165,0.275612
13966,161994,299.154,298.184,0.218289
14023,162655.2,299.159,298.201,0.286585
14080,163316.4,299.156,298.219,0.32296
14137,163977.6,299.153,298.234,0.436728
14194,164638.8,299.153,298.245,0.517032
14251,165300,299.153,298.256,0.587382
14308,165961.2,299.153,298.264,0.626158
14365,166622.4,299.151,298.272,0.669224
14422,167283.6,299.149,298.277,0.727735
14479,167944.8,299.15,298.281,0.792938
14536,168606,299.149,298.284,0.794994
14593,169267.2,299.151,298.286,0.857109
14650,169928.4,299.151,298.288,0.826564
14707,170589.6,299.152,298.29,0.845094
14764,171250.8,299.151,298.293,0.867228
14821,171912,299.151,298.295,0.822784
14878,172573.2,299.147,298.295,0.893136
14897,172793.6,299.15,298.295,0.915958