Folder: NH3_Calorimetry/i_data/0.25Kmin (part 2)

File: H2O-NH3_8wt%.csv
NH3-H2O 8wt%  Specific Heat - Large HF,,,,
Creation Date : 7/14/2022 11:04:01 AM,,,,
User : admin,,,,
,,,,
HeatFlow :,,,,
 Initial Mass : 4550 mg,,,,
 Molar Mass : 17 g/mol,,,,
,,,,
Index,Time(s),Furnace Temperature(K),Sample Temperature(K),HeatFlow(mW)
1,0,298.949,298.777,11.5918
58,661.2,298.813,298.809,0.220214
115,1322.4,298.454,298.783,0.020067
172,1983.6,297.271,298.586,3.453336
229,2644.8,294.365,297.952,13.1
286,3306,289.909,296.544,32.5498
343,3967.2,284.955,294.318,56.5425
400,4628.4,280.083,291.47,77.3548
457,5289.6,275.404,288.158,93.2745
514,5950.8,270.903,284.55,104.124
571,6612,266.609,280.774,110.716
628,7273.2,262.521,276.923,114.164
685,7934.4,258.585,273.061,115.357
742,8595.6,254.818,269.228,114.978
799,9256.8,251.19,265.4551,113.843
856,9918,247.661,261.751,111.991
913,10579.2,244.26,258.128,109.337
970,11240.4,240.928,254.587,107.034
1027,11901.6,237.696,251.168,540.572
1084,12562.8,234.5749,247.816,324.124
1141,13224,231.513,244.529,202.458
1198,13885.2,228.529,241.312,148.007
1255,14546.4,225.633,238.173,121.002
1312,15207.6,222.795,235.111,102.815
1369,15868.8,220.012,232.122,91.6498
1426,16530,217.292,229.199,82.44874
1483,17191.2,214.642,226.344,75.6551
1540,17852.4,212.076,223.557,69.0113
1597,18513.6,209.582,220.841,64.46305
1654,19174.8,207.158,218.194,59.834
1711,19836,204.778,215.613,55.9503
1768,20497.2,202.449,213.092,52.1681
1825,21158.4,200.183,210.629,49.1444
1882,21819.6,198.006,208.229,47.12
1939,22480.8,195.901,205.896,44.2295
1996,23142,193.846,203.624,42.1075
2053,23803.2,191.837,201.413,39.4836
2110,24464.4,189.877,199.257,37.7496
2167,25125.6,187.941,197.152,35.9159
2224,25786.8,186.046,195.094,33.8205
2281,26448,184.21,193.085,31.9701
2338,27109.2,182.414,191.121,30.3369
2395,27770.4,180.674,189.206,29.7493
2452,28431.6,178.981,187.337,28.7533
2509,29092.8,177.311,185.513,27.22274
2566,29754,175.683,183.728,25.7607
2623,30415.2,174.079,181.984,25.1261
2680,31076.4,172.528,180.278,23.6196
2737,31737.6,171.022,178.614,23.214
2794,32398.8,169.53,176.987,21.8575
2851,33060,168.094,175.396,21.926
2908,33721.2,166.683,173.845,20.755
2965,34382.4,165.289,172.325,20.1397
3022,35043.6,163.953,170.841,19.6047
3079,35704.8,162.6323,169.39,18.4268
3136,36366,161.356,167.974,18.2732
3193,37027.2,160.098,166.589,17.653
3250,37688.4,158.875,165.236,16.8935
3307,38349.6,157.659,163.911,16.7126
3364,39010.8,156.474,162.613,16.0779
3421,39672,155.311,161.344,15.594
3478,40333.2,154.163,160.098,15.2849
3535,40994.4,153.0381,158.875,15.0994
3592,41655.6,151.959,157.678,14.534
3649,42316.8,150.88,156.506,14.1163
3706,42978,149.851,155.358,13.7895
3763,43639.2,148.842,154.237,13.0725
3820,44300.4,147.848,153.141,12.89981
3877,44961.6,146.87,152.067,12.375
3934,45622.8,145.935,151.017,12.0801
3991,46284,145.023,149.994,12.071
4048,46945.2,144.116,148.993,11.4557
4105,47606.4,143.25,148.015,11.1956
4162,48267.6,142.404,147.061,10.5977
4219,48928.8,141.573,146.131,10.5772
4276,49590,140.755,145.221,10.0115
4333,50251.2,139.958,144.332,9.987601
4390,50912.4,139.176,143.463,9.670859
4447,51573.6,138.417,142.613,9.229635
4504,52234.8,137.657,141.782,9.150415
4561,52896,136.852,140.96,8.962095
4618,53557.2,136.088,140.145,8.805834
4675,54218.4,135.338,139.344,8.542558
4732,54879.6,134.589,138.551,8.52229
4789,55540.8,133.855,137.768,8.173344
4846,56202,133.146,136.998,8.199741
4903,56863.2,132.458,136.244,7.918858
4960,57524.4,131.794,135.502,7.805884
5017,58185.6,131.141,134.777,7.594762
5074,58846.8,130.452,134.062,7.467523
5131,59508,129.793,133.358,7.298517
5188,60169.2,129.127,132.658,7.119535
5245,60830.4,128.542,131.975,7.004351
5302,61491.6,127.886,131.302,6.921347
5359,62152.8,127.269,130.6397,6.709864
5416,62814,126.597,129.978,6.639299
5473,63475.2,126.035,129.322,6.479823
5530,64136.4,125.531,128.693,6.236818
5587,64797.6,124.988,128.087,6.000403
5644,65458.8,124.433,127.486,5.872943
5701,66120,123.888,126.898,5.790304
5758,66781.2,123.366,126.32,5.568751
5815,67442.4,122.781,125.745,5.428437
5872,68103.6,122.27,125.174,5.415151
5929,68764.8,121.89,124.63,5.220308
5986,69426,121.514,124.118,4.81628
6043,70087.2,121.14,123.629,4.552258
6100,70748.4,120.704,123.159,4.293829
6157,71409.6,120.177,122.683,4.370915
6214,72070.8,119.714,122.203,4.330438
6271,72732,119.218,121.725,4.294588
6328,73393.2,118.791,121.249,4.255627
6385,74054.4,118.321,120.78,4.68542
6442,74715.6,117.888,120.31,4.22447
6499,75376.8,117.585,119.862,3.955669
6556,76038,117.331,119.446,3.599793
6613,76699.2,117.071,119.061,3.326586
6670,77360.4,116.676,118.687,3.162138
6727,78021.6,116.309,118.308,3.182141
6784,78682.8,116.039,117.942,3.050493
6841,79344,115.69,117.588,2.967806
6898,80005.2,115.367,117.235,2.908952
6955,80666.4,115.071,116.889,2.831635
7012,81327.6,114.843,116.561,2.647026
7069,81988.8,114.621,116.252,2.49223
7126,82650,114.406,115.96,2.335633
7183,83311.2,114.215,115.684,2.155753
7240,83972.4,114.018,115.424,1.982763
7297,84633.6,113.728,115.168,1.903843
7354,85294.8,113.322,114.896,2.042889
7411,85956,112.75,114.58,2.383903
7468,86617.2,112.319,114.227,2.662866
7525,87278.4,112.082,113.878,2.633689
7582,87939.6,111.933,113.561,2.38827
7639,88600.8,111.844,113.28,2.030322
7696,89262,111.8,113.041,1.638824
7753,89923.2,111.755,112.837,1.313938
7810,90584.4,111.696,112.662,1.083404
7867,91245.6,111.626,112.506,0.889127
7924,91906.8,111.554,112.365,0.742655
7981,92568,111.476,112.238,0.62368
8038,93229.2,111.379,112.118,0.559896
8095,93890.4,111.286,112.001,0.517142
8152,94551.6,111.203,111.89,0.468776
8209,95212.8,113.541,111.901,-0.728265
8266,95874,116.573,112.474,-5.172232
8323,96535.2,119.326,113.464,-8.817569
8380,97196.4,122.092,114.786,-11.8171
8437,97857.6,124.85,116.375,-14.4619
8494,98518.8,127.617,118.184,-17.049
8551,99180,130.369,120.168,-20.1813
8608,99841.2,133.13,122.294,-24.5745
8665,100502.4,135.884,124.537,-25.5079
8722,101163.6,138.643,126.873,-25.6217
8779,101824.8,141.398,129.286,-26.584
8836,102486,144.157,131.763,-27.5935
8893,103147.2,146.909,134.29,-28.4633
8950,103808.4,149.664,136.86,-29.2306
9007,104469.6,152.423,139.462,-29.8908
9064,105130.8,155.177,142.095,-30.5161
9121,105792,157.932,144.752,-31.0816
9178,106453.2,160.688,147.428,-31.4583
9235,107114.4,163.444,150.1202,-30.8117
9292,107775.6,166.204,152.828,-25.0676
9349,108436.8,168.954,155.548,-1.31067
9406,109098,171.709,158.281,30.8353
9463,109759.2,174.467,161.021,22.8763
9520,110420.4,177.218,163.765,6.826137
9577,111081.6,179.976,166.51,-16.1262
9634,111742.8,182.732,169.261,-27.5245
9691,112404,185.486,172.015,-78.1907
9748,113065.2,188.241,174.781,11.8315
9805,113726.4,190.995,177.551,-128.579
9862,114387.6,193.752,180.305,-169.785
9919,115048.8,196.504,183.089,-50.7551
9976,115710,199.26,185.88,-42.4389
10033,116371.2,202.016,188.675,-42.472
10090,117032.4,204.773,191.473,-43.2556
10147,117693.6,207.526,194.272,-44.1473
10204,118354.8,210.281,197.073,-45.1262
10261,119016,213.037,199.876,-46.1758
10318,119677.2,215.792,202.68,-47.2933
10375,120338.4,218.546,205.485,-48.501
10432,120999.6,221.302,208.291,-49.8257
10489,121660.8,224.059,211.099,-51.3209
10546,122322,226.812,213.906,-52.8895
10603,122983.2,229.57,216.715,-54.8162
10660,123644.4,232.323,219.525,-56.8605
10717,124305.6,235.079,222.333,-59.12825
10774,124966.8,237.832,225.143,-61.9484
10831,125628,240.587,227.951,-65.0137
10888,126289.2,243.341,230.759,-68.6199
10945,126950.4,246.097,233.568,-72.8285
11002,127611.6,248.854,236.375,-77.949
11059,128272.8,251.6094,239.184,-84.1467
11116,128934,254.364,241.992,-91.7841
11173,129595.2,257.118,244.799,-101.191
11230,130256.4,259.873,247.605,-112.872
11287,130917.6,262.628,250.409,-127.996
11344,131578.8,265.383,253.213,-147.727
11401,132240,268.139,256.014,-173.166
11458,132901.2,270.894,258.815,-204.645
11515,133562.4,273.649,261.614,-207.873
11572,134223.6,276.405,264.415,-212.715
11629,134884.8,279.159,267.214,-265.627
11686,135546,281.914,270.014,-206.787
11743,136207.2,284.668,272.825,-99.0322
11800,136868.4,287.425,275.641,-84.39893
11857,137529.6,290.179,278.452,-82.6643
11914,138190.8,292.934,281.262,-82.48
11971,138852,295.688,284.069,-82.76803
12028,139513.2,298.443,286.874,-83.0676
12085,140174.4,299.241,289.527,-81.1418
12142,140835.6,299.19,291.591,-68.159
12199,141496.8,299.18,293.167,-53.4696
12256,142158,299.173,294.368,-41.5108
12313,142819.2,299.168,295.29,-32.0357
12370,143480.4,299.164,296.006,-25.0418
12427,144141.6,299.161,296.555,-19.3014
12484,144802.8,299.16,296.975,-14.8959
12541,145464,299.1568,297.296,-11.508
12598,146125.2,299.155,297.54,-8.872045
12655,146786.4,299.153,297.725,-6.850345
12712,147447.6,299.153,297.868,-5.319346
12769,148108.8,299.151,297.974,-4.152112
12826,148770,299.153,298.057,-3.260664
12883,149431.2,299.151,298.12,-2.582042
12940,150092.4,299.152,298.168,-2.03173
12997,150753.6,299.15,298.205,-1.617225
13054,151414.8,299.15,298.232,-1.273633
13111,152076,299.152,298.253,-0.924747
13168,152737.2,299.15,298.27,-0.639024
13225,153398.4,299.15,298.283,-0.365838
13282,154059.6,299.15,298.292,-0.171421
13339,154720.8,299.151,298.299,-0.003775
13396,155382,299.149,298.305,0.126119
13453,156043.2,299.15,298.31,0.235592
13510,156704.4,299.15,298.312,0.320014
13567,157365.6,299.15,298.315,0.423481
13624,158026.8,299.15,298.316,0.529693
13681,158688,299.149,298.318,0.564525
13738,159349.2,299.15,298.318,0.593351
13795,160010.4,299.15,298.319,0.60725
13852,160671.6,299.15,298.319,0.620976
13909,161332.8,299.151,298.321,0.614112
13966,161994,299.151,298.321,0.61497
14023,162655.2,299.15,298.321,0.620117
14080,163316.4,299.149,298.321,0.651518
14137,163977.6,299.149,298.322,0.661469
14194,164638.8,299.15,298.322,0.666102
14251,165300,299.151,298.322,0.671765
14308,165961.2,299.151,298.322,0.670906
14365,166622.4,299.15,298.322,0.674167
14422,167283.6,299.15,298.322,0.680687
14479,167944.8,299.149,298.323,0.681201
14536,168606,299.151,298.323,0.686692
14593,169267.2,299.149,298.323,0.693727
14650,169928.4,299.149,298.323,0.706597
14707,170589.6,299.149,298.322,0.718437
14764,171250.8,299.151,298.321,0.733365
14821,171912,299.15,298.321,0.714834
14878,172573.2,299.148,298.319,0.727704
14897,172793.6,299.148,298.319,0.741775