Folder: NH3_Calorimetry/i_data/26C (part 2)

File: H2O-NH3_4.5858g.csv
H2O-NH3 8wt% Specific Heat - Large HF,,,,
Creation Date : 8/19/2022 10:37:18 AM,,,,
User : admin,,,,
,,,,
HeatFlow :,,,,
 Initial Mass : 4585.8 mg,,,,
 Molar Mass : 17 g/mol,,,,
,,,,
Index,Time(s),Furnace Temperature(K),Sample Temperature(K),HeatFlow(mW)
1,0,298.73,298.569,342.66
59,980.2,298.611,298.621,12.82397
117,1960.4,297.535,298.489,2.383475
175,2940.6,292.933,297.48,17.8346
233,3920.8,285.62,294.662,53.0377
291,4901,278.2845,290.332,84.36542
349,5881.2,271.483,285.1,103.774
407,6861.4,265.149,279.467,112.628
465,7841.6,259.212,273.724,115.524
523,8821.8,253.594,268.028,115.006
581,9802,248.244,262.457,112.35
639,10782.2,243.144,257.051,109.508
697,11762.4,238.281,251.835,105.409
755,12742.6,233.599,246.835,948.292
813,13722.8,229.139,242.039,234.41
871,14703,224.856,237.372,120.567
929,15683.2,220.734,232.882,94.4004
987,16663.4,216.752,228.56,80.3653
1045,17643.6,212.904,224.395,69.97124
1103,18623.8,209.214,220.379,62.0943
1161,19604,205.66,216.513,56.0091
1219,20584.2,202.211,212.782,50.4698
1277,21564.4,198.863,209.174,46.6791
1335,22544.6,195.637,205.685,43.4619
1393,23524.8,192.527,202.312,40.0355
1451,24505,189.523,199.051,37.2606
1509,25485.2,186.619,195.897,34.6398
1567,26465.4,183.845,192.856,32.97523
1625,27445.6,181.157,189.916,30.6973
1683,28425.8,178.607,187.085,28.5771
1741,29406,176.151,184.362,26.4377
1799,30386.2,173.765,181.737,25.012
1857,31366.4,171.452,179.202,23.78078
1915,32346.6,169.226,176.752,22.5562
1973,33326.8,167.073,174.385,21.62017
2031,34307,164.979,172.094,20.8024
2089,35287.2,162.956,169.878,19.4883
2147,36267.4,161.0026,167.733,18.98277
2205,37247.6,159.115,165.655,18.1857
2263,38227.8,157.294,163.648,16.8632
2321,39208,155.513,161.703,16.5054
2379,40188.2,153.753,159.811,15.8699
2437,41168.4,152.015,157.965,15.3184
2495,42148.6,150.298,156.155,14.6932
2553,43128.8,148.607,154.378,14.362
2611,44109,146.954,152.634,14.1587
2669,45089.2,145.352,150.927,13.6912
2727,46069.4,143.803,149.257,13.1724
2785,47049.6,142.347,147.636,12.446
2843,48029.8,140.936,146.072,12.242
2901,49010,139.574,144.556,11.6422
2959,49990.2,138.254,143.089,11.1114
3017,50970.4,136.976,141.67,10.6846
3075,51950.6,135.712,140.294,10.1978
3133,52930.8,134.481,138.949,9.728132
3191,53911,133.348,137.653,9.370213
3249,54891.2,132.253,136.407,9.028509
3307,55871.4,131.158,135.201,8.516709
3365,56851.6,130.101,134.031,8.261926
3423,57831.8,129.076,132.896,7.843722
3481,58812,128.1,131.798,7.681711
3539,59792.2,127.176,130.74,7.268928
3597,60772.4,126.249,129.719,6.855904
3655,61752.6,125.34,128.724,6.749487
3713,62732.8,124.471,127.758,6.532759
3771,63713,123.628,126.821,6.136901
3829,64693.2,122.807,125.913,5.869379
3887,65673.4,121.999,125.03,5.737573
3945,66653.6,121.217,124.17,5.448837
4003,67633.8,120.45,123.333,5.359509
4061,68614,119.736,122.521,5.072369
4119,69594.2,119.032,121.738,4.821931
4177,70574.4,118.274,120.97,4.728139
4235,71554.6,117.581,120.207,4.617087
4293,72534.8,116.954,119.476,4.30639
4351,73515,116.344,118.775,4.227478
4409,74495.2,115.772,118.102,3.875291
4467,75475.4,115.191,117.455,3.67494
4525,76455.6,114.639,116.829,3.46171
4583,77435.8,114.112,116.226,3.262862
4641,78416,113.621,115.648,3.060701
4699,79396.2,113.057,115.087,2.935503
4757,80376.4,112.447,114.508,2.998223
4815,81356.6,112.055,113.955,2.763477
4873,82336.8,111.734,113.455,2.441636
4931,83317,111.503,113.015,2.078272
4989,84297.2,111.277,112.632,1.729054
5047,85277.4,111.017,112.286,1.507266
5105,86257.6,110.731,111.956,1.383586
5163,87237.8,110.458,111.643,1.282222
5221,88218,110.136,111.327,1.289779
5279,89198.2,109.866,111.016,1.254419
5337,90178.4,109.701,110.736,1.037946
5395,91158.6,109.419,110.465,1.013971
5453,92138.8,109.294,110.218,0.846562
5511,93119,109.141,109.995,0.719488
5569,94099.2,108.978,109.791,0.625553
5627,95079.4,108.88,109.606,0.49196
5685,96059.6,108.844,109.453,0.30232
5743,97039.8,108.8,109.329,0.151299
5801,98020,108.749,109.225,0.037854
5859,99000.2,108.691,109.134,-0.025358
5917,99980.4,108.634,109.051,-0.073927
5975,100960.6,108.591,108.977,-0.120982
6033,101940.8,108.56,108.913,-0.176855
6091,102921,108.52,108.856,-0.215831
6149,103901.2,108.477,108.803,-0.248869
6207,104881.4,108.44,108.753,-0.263717
6265,105861.6,109.267,108.741,-0.634236
6323,106841.8,111.197,109.169,-3.270583
6381,107822,112.828,109.922,-4.978134
6439,108802.2,114.467,110.902,-6.247297
6497,109782.4,116.099,112.054,-7.226854
6555,110762.6,117.739,113.326,-8.021188
6613,111742.8,119.369,114.69,-8.667818
6671,112723,121.012,116.121,-9.305122
6729,113703.2,122.646,117.602,-10.0082
6787,114683.4,124.281,119.116,-10.96268
6845,115663.6,125.911,120.66,-12.3116
6903,116643.8,127.551,122.222,-12.694
6961,117624,129.184,123.8,-12.0864
7019,118604.2,130.814,125.388,-12.1371
7077,119584.4,132.444,126.984,-12.25288
7135,120564.6,134.068,128.584,-12.3468
7193,121544.8,135.697,130.175,-12.34508
7251,122525,137.327,131.756,-12.3674
7309,123505.2,138.95,133.327,-12.3592
7367,124485.4,140.625,134.895,-12.4435
7425,125465.6,142.268,136.47,-12.5426
7483,126445.8,143.899,138.08,-12.8788
7541,127426,145.541,139.708,-13.0656
7599,128406.2,147.165,141.344,-13.14853
7657,129386.4,148.789,142.988,-13.18217
7715,130366.6,150.431,144.631,-12.8004
7773,131346.8,152.059,146.277,-11.3094
7831,132327,153.685,147.92,-6.722163
7889,133307.2,155.327,149.567,6.895884
7947,134287.4,156.954,151.216,37.17391
8005,135267.6,158.589,152.867,32.8791
8063,136247.8,160.231,154.508,-3.171746
8121,137228,161.858,156.144,-11.07342
8179,138208.2,163.487,157.781,-11.6756
8237,139188.4,165.123,159.418,-11.7997
8295,140168.6,166.756,161.056,-11.8328
8353,141148.8,168.393,162.692,-11.9285
8411,142129,170.032,164.332,-12.035
8469,143109.2,171.658,165.973,-12.1116
8527,144089.4,173.296,167.611,-12.3458
8585,145069.6,174.93,169.249,-13.3302
8643,146049.8,176.564,170.888,-11.8906
8701,147030,178.199,172.528,-12.3734
8759,148010.2,179.819,174.168,-12.8611
8817,148990.4,181.465,175.806,-21.6489
8875,149970.6,183.092,177.427,-161.471
8933,150950.8,184.72,179.056,-29.5728
8991,151931,186.364,180.699,-16.5559
9049,152911.2,188,182.34,-16.4757
9107,153891.4,189.628,183.975,-16.5041
9165,154871.6,191.264,185.614,-16.5252
9223,155851.8,192.901,187.253,-16.7679
9281,156832,194.533,188.895,-16.9677
9339,157812.2,196.153,190.535,-17.1919
9397,158792.4,197.786,192.172,-17.4448
9455,159772.6,199.435,193.802,-17.4632
9513,160752.8,201.073,195.44,-17.7538
9571,161733,202.702,197.083,-18.1399
9629,162713.2,204.332,198.726,-18.1823
9687,163693.4,205.97,200.367,-18.4977
9745,164673.6,207.599,202.004,-18.5657
9803,165653.8,209.239,203.644,-18.91171
9861,166634,210.869,205.291,-19.3756
9919,167614.2,212.503,206.937,-19.5696
9977,168594.4,214.137,208.583,-20.146
10035,169574.6,215.773,210.231,-20.4834
10093,170554.8,217.408,211.881,-20.76118
10151,171535,219.043,213.533,-21.0326
10209,172515.2,220.675,215.191,-21.6735
10267,173495.4,222.302,216.846,-22.2988
10325,174475.6,223.939,218.498,-22.5619
10383,175455.8,225.572,220.149,-22.9717
10441,176436,227.175,221.791,-23.62
10499,177416.2,228.676,223.352,-23.0134
10557,178396.4,230.443,224.807,-22.447
10615,179376.6,232.123,226.33,-23.99503
10673,180356.8,233.772,227.917,-25.5929
10731,181337,235.41,229.555,-27.194
10789,182317.2,237.043,231.24,-29.0647
10847,183297.4,238.668,232.951,-30.5867
10905,184277.6,240.292,234.664,-32.1883
10963,185257.8,241.921,236.372,-33.5967
11021,186238,243.553,238.071,-35.0605
11079,187218.2,245.178,239.76,-36.8861
11137,188198.4,246.814,241.437,-38.911
11195,189178.6,248.448,243.11,-41.2927
11253,190158.8,250.079,244.775,-44.0706
11311,191139,251.71,246.434,-47.3056
11369,192119.2,253.344,248.088,-51.20742
11427,193099.4,254.977,249.737,-55.6696
11485,194079.6,256.61,251.384,-61.1906
11543,195059.8,258.245,253.029,-67.8243
11601,196040,259.879,254.67,-76.0914
11659,197020.2,261.512,256.312,-85.9698
11717,198000.4,263.145,257.951,-97.566
11775,198980.6,264.779,259.589,-109.531
11833,199960.8,266.414,261.226,-120.828
11891,200941,268.046,262.864,-119.36
11949,201921.2,269.682,264.505,-98.1522
12007,202901.4,271.313,266.153,-38.394
12065,203881.6,272.948,267.803,-32.49185
12123,204861.8,274.582,269.451,-32.308
12181,205842,276.214,271.097,-32.3002
12239,206822.2,277.85,272.741,-32.258
12297,207802.4,279.484,274.385,-32.271
12355,208782.6,281.116,276.029,-32.2658
12413,209762.8,282.75,277.672,-32.2597
12471,210743,284.383,279.314,-32.2716
12529,211723.2,286.017,280.956,-32.2604
12587,212703.4,287.65,282.597,-32.2881
12645,213683.6,289.283,284.238,-32.2933
12703,214663.8,290.917,285.878,-32.32587
12761,215644,292.551,287.519,-32.3248
12819,216624.2,294.185,289.158,-32.3144
12877,217604.4,295.821,290.796,-32.2719
12935,218584.6,297.452,292.428,-32.2007
12993,219564.8,299.086,294.053,-32.1055
13051,220545,299.17,295.444,-27.9584
13109,221525.2,299.162,296.392,-19.4462
13167,222505.4,299.153,297.028,-12.9217
13225,223485.6,299.151,297.448,-8.354388
13283,224465.8,299.15,297.725,-5.30979
13341,225446,299.153,297.91,-3.298726
13399,226426.2,299.156,298.036,-2.049842
13457,227406.4,299.152,298.122,-1.218166
13515,228386.6,299.15,298.178,-0.602871
13573,229366.8,299.147,298.213,-0.172635
13631,230347,299.147,298.232,0.187733
13689,231327.2,299.145,298.241,0.383357
13747,232307.4,299.146,298.242,0.536081
13805,233287.6,299.148,298.241,0.63561
13863,234267.8,299.147,298.237,0.693786
13921,235248,299.146,298.23,0.733087
13979,236228.2,299.148,298.223,0.771703
14037,237208.4,299.148,298.215,0.798995
14095,238188.6,299.149,298.208,0.776348
14153,239168.8,299.148,298.201,0.758677
14211,240149,299.148,298.195,0.751818
14269,241129.2,299.149,298.191,0.720931
14327,242109.4,299.148,298.187,0.712868
14385,243089.6,299.148,298.183,0.733464
14443,244069.8,299.148,298.178,0.726775
14501,245050,299.147,298.171,0.762647
14559,246030.2,299.149,298.165,0.751325
14617,247010.4,299.15,298.16,0.75682
14675,247990.6,299.15,298.157,0.716322
14733,248970.8,299.149,298.152,0.732457
14791,249951,299.149,298.149,0.715297
14849,250931.2,299.151,298.146,0.706204
14907,251911.4,299.15,298.144,0.683724
14954,252705.7,299.153,298.145,0.664158