Folder: NH3_Calorimetry/i_data/46C

Note: README.md
# <u>Calorimetry Analysis</u>
*Repository for analysis specific heat capacity analysis of the calorimetry data of H2O-NH3 systems*

Folder Structure:
- **i_data**: all experimental data
  - **26C**: data with T range up to 26 C (299.15 K)
  - **46C**: data with T range up to 26 C (299.15 K)
  - **calibration_ice**: data for calibration of calorimeter
- **i_data_literature**: all literature data
  - **lit_cp**: past NH3-H2O specific heat measurements
- **i_data_processed**: processed experimental data
  - **not_smoothed**: data that has not undergone average smoothing (used for plotting)
- **o_finalPlots**: plots used in the manuscript
- **o_supplementaryPlots**: plots used in the supplementary information
- **z_scripts**: all scripts used in analysis
- **z_unorganized_archive**: folders pre-organization.

File: H2O-NH3_3.7107g.csv
H2O-NH3 20wt% Specific Heat - Large HF,,,,
Creation Date : 9/29/2022 1:10:54 PM,,,,
User : admin,,,,
,,,,
HeatFlow :,,,,
 Initial Mass : 3710.7 mg,,,,
 Molar Mass : 17 g/mol,,,,
,,,,
Index,Time(s),Furnace Temperature(K),Sample Temperature(K),HeatFlow(mW)
1,0,298.833,298.867,1798.27
59,1026.6,298.799,298.873,2.865347
117,2053.2,297.603,298.71,0.005146
175,3079.8,292.107,297.456,16.2917
233,4106.4,281.57,293.775,53.4002
291,5133,266.707,286.705,105.502
349,6159.6,253.713,277.291,141.2
407,7186.2,242.45,267.154,151.002
465,8212.8,232.766,257.095,147.522
523,9239.4,224.704,247.611,136.073
581,10266,218.104,239.005,120.323
639,11292.6,212.651,231.368,104.473
697,12319.2,208.298,224.725,87.8911
755,13345.8,204.555,219.007,237.428
813,14372.4,201.029,214,88.193
871,15399,197.631,209.501,67.6923
929,16425.6,194.413,205.4047,56.9792
987,17452.2,191.169,201.601,49.9557
1045,18478.8,188.116,198.017,44.1342
1103,19505.4,185.2,194.638,39.8163
1161,20532,182.437,191.44,35.5341
1219,21558.6,179.768,188.403,32.7451
1277,22585.2,177.173,185.503,29.9825
1335,23611.8,174.66,182.717,28.3831
1393,24638.4,172.219,180.036,26.12931
1451,25665,169.852,177.449,24.9948
1509,26691.6,167.575,174.949,23.6365
1567,27718.2,165.364,172.534,22.1456
1625,28744.8,163.224,170.198,21.1338
1683,29771.4,161.134,167.9336,20.1184
1741,30798,159.119,165.737,19.0546
1799,31824.6,157.166,163.609,18.491
1857,32851.2,155.187,161.533,17.74478
1915,33877.8,153.368,159.515,16.5537
1973,34904.4,151.607,157.569,15.975
2031,35931,149.877,155.685,15.4006
2089,36957.6,148.1827,153.853,14.6325
2147,37984.2,146.514,152.071,14.0987
2205,39010.8,144.859,150.324,13.6724
2263,40037.4,143.286,148.619,13.2466
2321,41064,141.759,146.961,12.68821
2379,42090.6,140.28,145.35,11.9479
2437,43117.2,138.86,143.785,11.61998
2495,44143.8,137.508,142.275,11.102
2553,45170.4,136.181,140.814,10.6938
2611,46197,134.888,139.397,10.24626
2669,47223.6,133.635,138.022,9.875082
2727,48250.2,132.414,136.685,9.574803
2785,49276.8,131.2414,135.388,9.040528
2843,50303.4,130.123,134.136,8.72113
2901,51330,129.039,132.927,8.364019
2959,52356.6,127.968,131.755,7.966147
3017,53383.2,126.913,130.612,7.746295
3075,54409.8,125.907,129.502,7.542448
3133,55436.4,124.942,128.427,7.215999
3191,56463,124.025,127.389,6.925981
3249,57489.6,123.126,126.389,6.441213
3307,58516.2,122.237,125.418,6.339181
3365,59542.8,121.376,124.472,6.137035
3423,60569.4,120.543,123.554,5.845675
3481,61596,119.754,122.666,5.553496
3539,62622.6,118.982,121.807,5.337528
3597,63649.2,118.286,120.982,5.136049
3655,64675.8,117.645,120.202,4.706783
3713,65702.4,116.979,119.458,4.469112
3771,66729,116.317,118.733,4.304718
3829,67755.6,115.705,118.034,3.993489
3887,68782.2,115.082,117.356,3.780735
3945,69808.8,114.487,116.698,3.530646
4003,70835.4,113.908,116.058,3.341086
4061,71862,113.352,115.439,3.123448
4119,72888.6,112.816,114.84,2.947148
4177,73915.2,112.297,114.26,2.759673
4235,74941.8,111.801,113.7,2.615193
4293,75968.4,111.332,113.162,2.459166
4351,76995,110.906,112.648,2.307982
4409,78021.6,110.528,112.165,2.100423
4467,79048.2,110.154,111.711,1.893195
4525,80074.8,109.821,111.285,1.708311
4583,81101.4,109.506,110.888,1.537112
4641,82128,109.173,110.508,1.422699
4699,83154.6,108.944,110.156,1.250542
4757,84181.2,108.759,109.846,1.04352
4815,85207.8,108.6,109.572,0.823777
4873,86234.4,108.407,109.328,0.691792
4931,87261,108.15,109.088,0.67487
4989,88287.6,107.868,108.837,0.712848
5047,89314.2,107.598,108.577,0.741275
5105,90340.8,107.377,108.32,0.710896
5163,91367.4,107.17,108.08,0.632987
5221,92394,106.954,107.845,0.583535
5279,93420.6,106.813,107.626,0.501865
5337,94447.2,106.695,107.432,0.368156
5395,95473.8,106.625,107.264,0.230512
5453,96500.4,106.574,107.126,0.101075
5511,97527,106.524,107.013,-0.014634
5569,98553.6,106.46,106.918,-0.085319
5627,99580.2,106.412,106.831,-0.139851
5685,100606.8,106.384,106.757,-0.214199
5743,101633.4,106.367,106.697,-0.278395
5801,102660,106.35,106.649,-0.321564
5859,103686.6,106.328,106.608,-0.365385
5917,104713.2,107.48,106.636,-0.933206
5975,105739.8,109.355,107.157,-3.340083
6033,106766.4,111.07,108.004,-4.843252
6091,107793,112.786,109.087,-5.966146
6149,108819.6,114.503,110.338,-6.84905
6207,109846.2,116.212,111.712,-7.555861
6265,110872.8,117.925,113.174,-8.163007
6323,111899.4,119.64,114.697,-8.745265
6381,112926,121.35,116.267,-9.419617
6439,113952.6,123.062,117.87,-10.4238
6497,114979.2,124.773,119.497,-12.1601
6555,116005.8,126.485,121.145,-14.5014
6613,117032.4,128.197,122.804,-13.8822
6671,118059,129.908,124.475,-13.0058
6729,119085.6,131.618,126.152,-13.0123
6787,120112.2,133.328,127.834,-13.0718
6845,121138.8,135.04,129.519,-13.1598
6903,122165.4,136.751,131.207,-13.2286
6961,123192,138.463,132.898,-13.3119
7019,124218.6,140.173,134.589,-13.3833
7077,125245.2,141.885,136.283,-13.45887
7135,126271.8,143.596,137.978,-13.5438
7193,127298.4,145.308,139.675,-13.6117
7251,128325,147.019,141.374,-13.6737
7309,129351.6,148.73,143.075,-13.6554
7367,130378.2,150.441,144.778,-13.2696
7425,131404.8,152.152,146.484,-11.197
7483,132431.4,153.861,148.191,-1.944741
7541,133458,155.575,149.905,35.8004
7599,134484.6,157.286,151.633,119.847
7657,135511.2,158.997,153.357,32.8128
7715,136537.8,160.706,155.064,-7.284316
7773,137564.4,162.417,156.769,-9.949892
7831,138591,164.128,158.478,-10.2558
7889,139617.6,165.838,160.187,-10.3665
7947,140644.2,167.551,161.898,-10.5238
8005,141670.8,169.263,163.61,-10.6594
8063,142697.4,170.973,165.324,-10.89767
8121,143724,172.684,167.04,-11.207
8179,144750.6,174.395,168.757,-11.3146
8237,145777.2,176.108,170.474,-11.1754
8295,146803.8,177.817,172.193,-11.12639
8353,147830.4,179.528,173.911,-11.7604
8411,148857,181.234,175.629,-18.1006
8469,149883.6,182.943,177.327,-164.31
8527,150910.2,184.657,179.004,-207.282
8585,151936.8,186.373,180.721,-22.9516
8643,152963.4,188.091,182.448,-18.2995
8701,153990,189.789,184.177,-18.5335
8759,155016.6,191.502,185.898,-18.7392
8817,156043.2,193.215,187.617,-18.8891
8875,157069.8,194.926,189.336,-19.2099
8933,158096.4,196.638,191.055,-19.5049
8991,159123,198.35,192.774,-19.7707
9049,160149.6,200.06,194.494,-20.0543
9107,161176.2,201.772,196.213,-20.48
9165,162202.8,203.483,197.934,-20.5099
9223,163229.4,205.194,199.654,-21.2378
9281,164256,206.906,201.375,-21.5482
9339,165282.6,208.617,203.098,-21.9262
9397,166309.2,210.335,204.826,-22.4648
9455,167335.8,212.041,206.557,-23.1321
9513,168362.4,213.751,208.289,-23.8048
9571,169389,215.461,210.017,-24.0663
9629,170415.6,217.173,211.743,-24.9275
9687,171442.2,218.882,213.47,-25.4498
9745,172468.8,220.587,215.194,-26.1444
9803,173495.4,222.303,216.913,-27.0507
9861,174522,224.018,218.631,-27.7141
9919,175548.6,225.724,220.353,-28.9281
9977,176575.2,227.436,222.071,-29.9602
10035,177601.8,229.149,223.791,-30.9042
10093,178628.4,230.861,225.513,-32.407
10151,179655,232.571,227.235,-33.9146
10209,180681.6,234.284,228.957,-35.2272
10267,181708.2,235.992,230.679,-37.02384
10325,182734.8,237.702,232.4,-38.429
10383,183761.4,239.414,234.121,-39.47939
10441,184788,241.124,235.841,-37.6401
10499,185814.6,242.836,237.5647,-25.6101
10557,186841.2,244.548,239.288,-23.2547
10615,187867.8,246.258,241.011,-23.165
10673,188894.4,247.969,242.732,-23.3004
10731,189921,249.68,244.453,-23.1582
10789,190947.6,251.39,246.174,-23.3301
10847,191974.2,253.101,247.894,-23.5354
10905,193000.8,254.813,249.614,-23.7799
10963,194027.4,256.524,251.333,-23.9004
11021,195054,258.235,253.054,-23.9619
11079,196080.6,259.945,254.774,-24.0505
11137,197107.2,261.658,256.493,-24.2895
11195,198133.8,263.367,258.212,-24.3816
11253,199160.4,265.081,259.93,-24.4986
11311,200187,266.79,261.65,-24.6408
11369,201213.6,268.501,263.369,-24.78705
11427,202240.2,270.21,265.088,-24.952
11485,203266.8,271.925,266.802,-24.9625
11543,204293.4,273.636,268.522,-25.1529
11601,205320,275.348,270.242,-25.3118
11659,206346.6,277.057,271.964,-25.4852
11717,207373.2,278.768,273.685,-25.6016
11775,208399.8,280.476,275.403,-25.6585
11833,209426.4,282.185,277.12,-25.768
11891,210453,283.9,278.832,-25.804
11949,211479.6,285.611,280.548,-25.9426
12007,212506.2,287.324,282.266,-26.0601
12065,213532.8,289.034,283.985,-26.0892
12123,214559.4,290.743,285.703,-26.1276
12181,215586,292.452,287.418,-26.15711
12239,216612.6,294.163,289.13,-26.0738
12297,217639.2,295.876,290.842,-26.0234
12355,218665.8,297.589,292.548,-25.8918
12413,219692.4,299.301,294.25,-25.8572
12471,220719,301.011,295.956,-25.9096
12529,221745.6,302.72,297.683,-26.22797
12587,222772.2,304.435,299.407,-26.2692
12645,223798.8,306.144,301.13,-26.2958
12703,224825.4,307.855,302.849,-26.3113
12761,225852,309.562,304.566,-26.3154
12819,226878.6,311.273,306.286,-26.3898
12877,227905.2,312.987,308.002,-26.3886
12935,228931.8,314.695,309.718,-26.4297
12993,229958.4,316.409,311.434,-26.44055
13051,230985,318.115,313.148,-26.4564
13109,232011.6,319.19,314.814,-26.0117
13167,233038.2,319.159,315.996,-18.6732
13225,234064.8,319.155,316.756,-11.8783
13283,235091.4,319.151,317.241,-7.311212
13341,236118,319.145,317.548,-4.330411
13399,237144.6,319.155,317.741,-2.451146
13457,238171.2,319.146,317.867,-1.324945
13515,239197.8,319.153,317.946,-0.564643
13573,240224.4,319.154,318.005,-0.172626
13631,241251,319.142,318.043,0.153047
13689,242277.6,319.14,318.056,0.582653
13747,243304.2,319.149,318.056,0.848922
13805,244330.8,319.144,318.047,0.999949
13863,245357.4,319.147,318.034,1.104241
13921,246384,319.146,318.019,1.145594
13979,247410.6,319.162,318.01,1.106115
14037,248437.2,319.151,318.006,1.054315
14095,249463.8,319.148,318.005,1.00808
14153,250490.4,319.146,318.002,1.018712
14211,251517,319.157,318.006,0.957456
14269,252543.6,319.149,318.007,0.992553
14327,253570.2,319.147,318.015,0.91442
14385,254596.8,319.16,318.023,0.894671
14443,255623.4,319.154,318.038,0.809279
14501,256650,319.161,318.062,0.700092
14559,257676.6,319.164,318.09,0.6611
14617,258703.2,319.16,318.125,0.560352
14675,259729.8,319.154,318.153,0.618382
14733,260756.4,319.15,318.172,0.744411
14791,261783,319.155,318.186,0.846143
14849,262809.6,319.154,318.2,0.851027
14907,263836.2,319.153,318.212,0.910915
14956,264703.5,319.151,318.219,0.96895

File: H2O-NH3_3.8153g.csv
H2O-NH3 15wt% Specific Heat - Large HF,,,,
Creation Date : 10/14/2022 1:35:53 PM,,,,
User : admin,,,,
,,,,
HeatFlow :,,,,
 Initial Mass : 3815.3 mg,,,,
 Molar Mass : 17 g/mol,,,,
,,,,
Index,Time(s),Furnace Temperature(K),Sample Temperature(K),HeatFlow(mW)
1,0,318.911,319.008,-1368.49
58,1008.9,317.949,318.741,-49.6402
115,2017.8,316.483,318.229,2.680578
172,3026.7,312.37,316.951,17.5398
229,4035.6,304.884,313.949,46.1515
286,5044.5,296.862,309.205,75.4389
343,6053.4,289.126,303.395,93.9616
400,7062.3,281.871,297.058,102.9
457,8071.2,275.106,290.601,104.205
514,9080.1,268.715,284.153,104.059
571,10089,262.638,277.836,101.501
628,11097.9,256.842,271.713,98.00612
685,12106.8,251.281,265.802,93.6495
742,13115.7,245.973,260.108,89.8319
799,14124.6,240.844,254.626,85.5927
856,15133.5,235.9028,249.339,82.1799
913,16142.4,231.163,244.245,79.1112
970,17151.3,226.61,239.352,426.761
1027,18160.2,222.27,234.654,144.111
1084,19169.1,218.101,230.121,97.78266
1141,20178,214.078,225.755,81.1543
1198,21186.9,210.246,221.56,70.0049
1255,22195.8,206.556,217.531,61.1517
1312,23204.7,202.991,213.656,54.7286
1369,24213.6,199.538,209.915,49.9394
1426,25222.5,196.218,206.306,45.5381
1483,26231.4,193.048,202.83,40.3642
1540,27240.3,190,199.485,38.3917
1597,28249.2,187.063,196.265,35.001
1654,29258.1,184.232,193.163,32.0956
1711,30267,181.505,190.172,29.8974
1768,31275.9,178.873,187.288,27.9704
1825,32284.8,176.335,184.505,26.0525
1882,33293.7,173.883,181.82,24.2459
1939,34302.6,171.534,179.23,22.8312
1996,35311.5,169.26,176.732,21.5306
2053,36320.4,167.058,174.317,19.9356
2110,37329.3,164.923,171.983,19.5921
2167,38338.2,162.848,169.723,18.4285
2224,39347.1,160.84,167.533,17.1035
2281,40356,158.899,165.411,16.786
2338,41364.9,157.037,163.359,16.2403
2395,42373.8,155.217,161.372,15.4406
2452,43382.7,153.469,159.448,14.4061
2509,44391.6,151.8,157.591,13.5184
2566,45400.5,150.174,155.796,13.2177
2623,46409.4,148.604,154.061,12.5753
2680,47418.3,147.079,152.381,12.1353
2737,48427.2,145.601,150.755,11.6591
2794,49436.1,144.032,149.161,10.9138
2851,50445,142.605,147.592,10.9479
2908,51453.9,141.31,146.089,10.4022
2965,52462.8,140.05,144.65,9.547616
3022,53471.7,138.813,143.265,9.512061
3079,54480.6,137.609,141.927,8.808916
3136,55489.5,136.432,140.633,8.567897
3193,56498.4,135.263,139.372,8.145133
3250,57507.3,134.148,138.144,7.955184
3307,58516.2,133.072,136.955,7.807151
3364,59525.1,132.058,135.806,7.420591
3421,60534,131.087,134.7,7.07907
3478,61542.9,130.121,133.634,6.880207
3535,62551.8,129.123,132.591,6.647679
3592,63560.7,128.184,131.568,6.503336
3649,64569.6,127.308,130.577,6.185239
3706,65578.5,126.446,129.622,5.785912
3763,66587.4,125.626,128.696,5.578496
3820,67596.3,124.841,127.806,5.305318
3877,68605.2,124.056,126.945,5.16382
3934,69614.1,123.296,126.106,4.878159
3991,70623,122.559,125.294,4.72391
4048,71631.9,121.816,124.501,4.581508
4105,72640.8,121.108,123.726,4.419437
4162,73649.7,120.43,122.972,4.302293
4219,74658.6,119.761,122.24,4.116912
4276,75667.5,119.168,121.536,3.898391
4333,76676.4,118.601,120.867,3.683509
4390,77685.3,118.075,120.231,3.425779
4447,78694.2,117.559,119.626,3.273517
4504,79703.1,117.052,119.048,3.245704
4561,80712,116.546,118.486,2.932761
4618,81720.9,116.069,117.944,2.754224
4675,82729.8,115.541,117.415,2.65451
4732,83738.7,115.06,116.888,2.562938
4789,84747.6,114.66,116.386,2.362719
4846,85756.5,114.234,115.908,2.24013
4903,86765.4,113.851,115.449,2.090726
4960,87774.3,113.518,115.017,1.917533
5017,88783.2,113.21,114.617,1.712235
5074,89792.1,112.943,114.245,1.496137
5131,90801,112.678,113.904,1.311312
5188,91809.9,112.435,113.585,1.183625
5245,92818.8,112.217,113.29,1.046684
5302,93827.7,112.027,113.02,0.893182
5359,94836.6,111.829,112.769,0.785025
5416,95845.5,111.647,112.535,0.695335
5473,96854.4,111.455,112.314,0.620893
5530,97863.3,111.282,112.102,0.558428
5587,98872.2,111.138,111.906,0.474553
5644,99881.1,110.99,111.723,0.392245
5701,100890,110.85,111.55,0.341683
5758,101898.9,110.715,111.386,0.296518
5815,102907.8,110.58,111.23,0.244758
5872,103916.7,110.436,111.08,0.212624
5929,104925.6,110.265,110.926,0.237887
5986,105934.5,110.091,110.768,0.246513
6043,106943.4,111.184,110.675,-0.355628
6100,107952.3,113.038,111.086,-2.851001
6157,108961.2,114.727,111.839,-4.451657
6214,109970.1,116.417,112.839,-5.669496
6271,110979,118.1,114.019,-6.65069
6328,111987.9,119.784,115.3328,-7.473146
6385,112996.8,121.463,116.739,-8.30247
6442,114005.7,123.147,118.217,-9.336958
6499,115014.6,124.834,119.746,-10.8962
6556,116023.5,126.511,121.311,-12.5836
6613,117032.4,128.196,122.902,-11.9028
6670,118041.3,129.878,124.514,-11.5067
6727,119050.2,131.559,126.141,-11.5718
6784,120059.1,133.241,127.778,-11.6817
6841,121068,134.922,129.422,-11.8016
6898,122076.9,136.606,131.075,-11.9297
6955,123085.8,138.286,132.733,-12.0149
7012,124094.7,139.967,134.394,-12.1024
7069,125103.6,141.641,136.058,-12.1625
7126,126112.5,143.332,137.715,-12.2176
7183,127121.4,145.015,139.374,-12.2606
7240,128130.3,146.702,141.039,-12.355
7297,129139.2,148.373,142.708,-12.3633
7354,130148.1,150.054,144.375,-12.1536
7411,131157,151.733,146.049,-11.0987
7468,132165.9,153.427,147.727,-6.608346
7525,133174.8,155.105,149.407,8.528462
7582,134183.7,156.776,151.097,45.12898
7639,135192.6,158.472,152.787,57.8667
7696,136201.5,160.14,154.47,11.5427
7753,137210.4,161.825,156.146,-7.097369
7810,138219.3,163.512,157.822,-9.490192
7867,139228.2,165.196,159.505,-9.965048
7924,140237.1,166.877,161.19,-10.1305
7981,141246,168.559,162.876,-10.335
8038,142254.9,170.238,164.563,-10.4315
8095,143263.8,171.917,166.25,-10.6202
8152,144272.7,173.596,167.938,-10.9715
8209,145281.6,175.271,169.621,-11.7503
8266,146290.5,176.966,171.304,-10.5096
8323,147299.4,178.639,172.99,-10.8484
8380,148308.3,180.328,174.675,-11.6069
8437,149317.2,182.012,176.36,-58.09268
8494,150326.1,183.687,178.029,-198.599
8551,151335,185.368,179.714,-25.911
8608,152343.9,187.046,181.415,-16.19613
8665,153352.8,188.738,183.111,-16.1599
8722,154361.7,190.412,184.804,-16.1235
8779,155370.6,192.09,186.499,-16.4579
8836,156379.5,193.778,188.19,-16.6355
8893,157388.4,195.461,189.886,-16.9107
8950,158397.3,197.14,191.576,-17.0942
9007,159406.2,198.824,193.269,-17.3176
9064,160415.1,200.505,194.96,-17.5828
9121,161424,202.18,196.65,-17.7554
9178,162432.9,203.87,198.339,-18.1993
9235,163441.8,205.547,200.028,-18.31427
9292,164450.7,207.235,201.721,-18.362
9349,165459.6,208.907,203.413,-18.9072
9406,166468.5,210.589,205.103,-19.52796
9463,167477.4,212.278,206.793,-19.9935
9520,168486.3,213.957,208.486,-20.1903
9577,169495.2,215.64,210.182,-20.5634
9634,170504.1,217.32,211.877,-21.3154
9691,171513,218.995,213.568,-21.8123
9748,172521.9,220.686,215.261,-22.2508
9805,173530.8,222.364,216.958,-23.07691
9862,174539.7,224.047,218.653,-23.52428
9919,175548.6,225.727,220.35,-24.3067
9976,176557.5,227.406,222.044,-25.1228
10033,177566.4,229.089,223.737,-25.8258
10090,178575.3,230.773,225.43,-26.7549
10147,179584.2,232.453,227.124,-28.0722
10204,180593.1,234.13,228.816,-29.18422
10261,181602,235.816,230.506,-30.6291
10318,182610.9,237.497,232.197,-32.0175
10375,183619.8,239.178,233.887,-33.5277
10432,184628.7,240.859,235.577,-35.076
10489,185637.6,242.542,237.266,-37.5159
10546,186646.5,244.226,238.957,-39.9533
10603,187655.4,245.903,240.649,-42.5925
10660,188664.3,247.584,242.3384,-45.6048
10717,189673.2,249.266,244.026,-49.0578
10774,190682.1,250.95,245.714,-53.0102
10831,191691,252.63,247.403,-57.7536
10888,192699.9,254.31,249.093,-62.6327
10945,193708.8,255.993,250.779,-65.7931
11002,194717.7,257.674,252.469,-49.6135
11059,195726.6,259.353,254.162,-30.0703
11116,196735.5,261.039,255.855,-25.6398
11173,197744.4,262.718,257.547,-25.4187
11230,198753.3,264.397,259.237,-25.4669
11287,199762.2,266.086,260.926,-25.5822
11344,200771.1,267.76,262.616,-25.6222
11401,201780,269.439,264.304,-25.71271
11458,202788.9,271.125,265.989,-25.6827
11515,203797.8,272.806,267.673,-25.7773
11572,204806.7,274.486,269.357,-25.9274
11629,205815.6,276.174,271.045,-26.0759
11686,206824.5,277.857,272.735,-26.20752
11743,207833.4,279.533,274.423,-26.2301
11800,208842.3,281.214,276.112,-26.2842
11857,209851.2,282.895,277.798,-26.3897
11914,210860.1,284.583,279.485,-26.4078
11971,211869,286.261,281.178,-26.5838
12028,212877.9,287.94,282.866,-26.5764
12085,213886.8,289.626,284.553,-26.6114
12142,214895.7,291.3,286.24,-26.6974
12199,215904.6,292.989,287.928,-26.8218
12256,216913.5,294.666,289.615,-26.8335
12313,217922.4,296.348,291.3,-26.8472
12370,218931.3,298.032,292.978,-26.8177
12427,219940.2,299.711,294.645,-26.6994
12484,220949.1,301.396,296.33,-27.0094
12541,221958,303.075,298.027,-27.1935
12598,222966.9,304.758,299.721,-27.1504
12655,223975.8,306.441,301.417,-27.1768
12712,224984.7,308.119,303.107,-27.0066
12769,225993.6,309.802,304.794,-26.8946
12826,227002.5,311.482,306.487,-26.9954
12883,228011.4,313.163,308.18,-27.0315
12940,229020.3,314.847,309.872,-27.0528
12997,230029.2,316.528,311.564,-27.0345
13054,231038.1,318.209,313.256,-27.0777
13111,232047,319.192,314.896,-26.6863
13168,233055.9,319.165,316.054,-19.0937
13225,234064.8,319.16,316.81,-12.34669
13282,235073.7,319.157,317.303,-7.859412
13339,236082.6,319.152,317.625,-4.962625
13396,237091.5,319.153,317.832,-2.922176
13453,238100.4,319.152,317.968,-1.604465
13510,239109.3,319.1505,318.056,-0.728274
13567,240118.2,319.151,318.112,-0.123174
13624,241127.1,319.152,318.149,-0.015354
13681,242136,319.151,318.175,0.372542
13738,243144.9,319.147,318.19,0.57416
13795,244153.8,319.15,318.199,0.714533
13852,245162.7,319.148,318.205,0.800408
13909,246171.6,319.151,318.208,0.822171
13966,247180.5,319.15,318.213,0.821324
14023,248189.4,319.143,318.213,0.84832
14080,249198.3,319.148,318.21,0.904674
14137,250207.2,319.156,318.207,0.950905
14194,251216.1,319.148,318.211,0.863843
14251,252225,319.15,318.211,0.898937
14308,253233.9,319.151,318.214,0.885269
14365,254242.8,319.152,318.214,0.943645
14422,255251.7,319.149,318.214,0.949888
14479,256260.6,319.153,318.216,0.956298
14536,257269.5,319.151,318.219,0.932338
14593,258278.4,319.147,318.219,0.954608
14650,259287.3,319.148,318.22,0.983458
14707,260296.2,319.148,318.219,1.012816
14764,261305.1,319.15,318.217,1.050611
14821,262314,319.149,318.215,1.076763
14878,263322.9,319.159,318.217,1.018554
14899,263694.6,319.158,318.22,0.976372