Folder: NH3_Calorimetry/i_data/smallHF

Note: README.md
# <u>Calorimetry Analysis</u>
*Repository for analysis specific heat capacity analysis of the calorimetry data of H2O-NH3 systems*

Folder Structure:
- **i_data**: all experimental data
  - **26C**: data with T range up to 26 C (299.15 K)
  - **46C**: data with T range up to 26 C (299.15 K)
  - **calibration_ice**: data for calibration of calorimeter
- **i_data_literature**: all literature data
  - **lit_cp**: past NH3-H2O specific heat measurements
- **i_data_processed**: processed experimental data
  - **not_smoothed**: data that has not undergone average smoothing (used for plotting)
- **o_finalPlots**: plots used in the manuscript
- **o_supplementaryPlots**: plots used in the supplementary information
- **z_scripts**: all scripts used in analysis
- **z_unorganized_archive**: folders pre-organization.

File: Blank.csv
"Blank - Small HF - -196C to 46C, 0.1 K/min.",,,,
Creation Date : 10/20/2022 3:05:21 PM,,,,
User : admin,,,,
,,,,
HeatFlow :,,,,
 Initial Mass : 0 mg,,,,
 Molar Mass : 17 g/mol,,,,
,,,,
Index,Time(s),Furnace Temperature(K),Sample Temperature(K),HeatFlow(mW)
1,0,297.679,297.693,60.0111
59,1026.6,297.662,297.702,3.238731
117,2053.2,296.756,297.583,0.028161
175,3079.8,292.976,296.727,0.004594
233,4106.4,285.843,294.146,0.190976
291,5133,278.257,289.861,0.173811
349,6159.6,271.153,284.518,0.317078
407,7186.2,264.504,278.692,0.440996
465,8212.8,258.333,272.72,0.595827
523,9239.4,252.554,266.813,0.829379
581,10266,247.05,261.058,0.541519
639,11292.6,241.767,255.479,0.53888
697,12319.2,236.718,250.09,0.363351
755,13345.8,231.854,244.895,0.556715
813,14372.4,227.23,239.897,0.027145
871,15399,222.782,235.091,0.776537
929,16425.6,218.495,230.468,0.608372
987,17452.2,214.357,226.014,0.050229
1045,18478.8,210.362,221.718,0.623603
1103,19505.4,206.536,217.576,0.712344
1161,20532,202.87,213.591,0.178282
1219,21558.6,199.335,209.753,-0.173091
1277,22585.2,195.925,206.054,0.145872
1335,23611.8,192.651,202.49,0.051341
1393,24638.4,189.505,199.055,-0.535503
1451,25665,186.444,195.741,0.225591
1509,26691.6,183.517,192.543,-0.762398
1567,27718.2,180.67,189.458,-0.337051
1625,28744.8,177.931,186.478,-0.900952
1683,29771.4,175.344,183.601,-1.272181
1741,30798,172.902,180.85,-1.172113
1799,31824.6,170.539,178.214,-1.120445
1857,32851.2,168.245,175.679,-0.933049
1915,33877.8,166.018,173.235,-1.35309
1973,34904.4,163.861,170.873,-0.812175
2031,35931,161.77,168.59,-1.071707
2089,36957.6,159.754,166.38,-0.197039
2147,37984.2,157.802,164.243,-0.099347
2205,39010.8,155.916,162.175,-0.714586
2263,40037.4,154.089,160.175,-0.422479
2321,41064,152.32,158.238,-0.281187
2379,42090.6,150.591,156.359,-0.327367
2437,43117.2,148.922,154.537,-0.333149
2495,44143.8,147.306,152.77,-0.092872
2553,45170.4,145.744,151.057,-0.37212
2611,46197,144.22,149.397,-0.08824
2669,47223.6,142.713,147.78,0.116082
2727,48250.2,141.253,146.204,0.137854
2785,49276.8,139.847,144.67,0.034177
2843,50303.4,138.475,143.18,0.070295
2901,51330,137.176,141.734,0.104105
2959,52356.6,135.965,140.344,-0.048563
3017,53383.2,134.78,139.01,-0.010082
3075,54409.8,133.62,137.722,0.020388
3133,55436.4,132.524,136.48,-0.042242
3191,56463,131.49,135.287,0.142116
3249,57489.6,130.502,134.147,0.040519
3307,58516.2,129.552,133.055,-0.018672
3365,59542.8,128.63,132.006,0.055682
3423,60569.4,127.7,130.993,-0.032755
3481,61596,126.834,130.011,0.000609
3539,62622.6,125.998,129.067,-0.014605
3597,63649.2,125.178,128.155,0.019336
3655,64675.8,124.37,127.271,0.004307
3713,65702.4,123.584,126.41,-0.036997
3771,66729,122.847,125.577,0.067964
3829,67755.6,122.14,124.775,-0.004636
3887,68782.2,121.453,124.003,-0.051182
3945,69808.8,120.78,123.256,-0.021931
4003,70835.4,120.125,122.532,0.011534
4061,71862,119.515,121.833,-0.005133
4119,72888.6,118.915,121.161,-0.000048
4177,73915.2,118.33,120.51,0.054211
4235,74941.8,117.758,119.879,0.039652
4293,75968.4,117.185,119.265,0.090831
4351,76995,116.631,118.663,0.094296
4409,78021.6,116.087,118.076,0.116875
4467,79048.2,115.625,117.512,0.113944
4525,80074.8,115.207,116.983,0.128889
4583,81101.4,114.842,116.492,0.151688
4641,82128,114.509,116.04,0.161692
4699,83154.6,114.131,115.617,0.165669
4757,84181.2,113.718,115.195,0.165552
4815,85207.8,113.373,114.788,0.153427
4873,86234.4,113.022,114.395,0.146896
4931,87261,112.719,114.022,0.124416
4989,88287.6,112.402,113.666,0.123303
5047,89314.2,112.144,113.328,0.117879
5105,90340.8,111.866,113.01,0.126424
5163,91367.4,111.65,112.711,0.119434
5221,92394,111.392,112.429,0.124015
5279,93420.6,111.153,112.158,0.121511
5337,94447.2,110.947,111.897,0.120911
5395,95473.8,110.781,111.658,0.11188
5453,96500.4,110.618,111.44,0.104577
5511,97527,110.44,111.233,0.100244
5569,98553.6,110.285,111.04,0.099109
5627,99580.2,110.11,110.852,0.097102
5685,100606.8,109.935,110.667,0.089836
5743,101633.4,109.809,110.492,0.082761
5801,102660,109.702,110.333,0.06937
5859,103686.6,109.594,110.189,0.065167
5917,104713.2,109.479,110.055,0.065076
5975,105739.8,109.362,109.924,0.063749
6033,106766.4,111.043,109.953,-0.239448
6091,107793,112.774,110.496,-0.354886
6149,108819.6,114.496,111.354,-0.452868
6207,109846.2,116.211,112.444,-0.541647
6265,110872.8,117.922,113.701,-0.598546
6323,111899.4,119.633,115.077,-0.626495
6381,112926,121.352,116.54,-0.663224
6439,113952.6,123.059,118.068,-0.680595
6497,114979.2,124.773,119.64,-0.683236
6555,116005.8,126.483,121.248,-0.698491
6613,117032.4,128.197,122.877,-0.68842
6671,118059,129.905,124.527,-0.696437
6729,119085.6,131.618,126.188,-0.675291
6787,120112.2,133.331,127.859,-0.662085
6845,121138.8,135.039,129.534,-0.662721
6903,122165.4,136.748,131.216,-0.642602
6961,123192,138.462,132.902,-0.642576
7019,124218.6,140.181,134.59,-0.633628
7077,125245.2,141.878,136.286,-0.621681
7135,126271.8,143.6,137.98,-0.611117
7193,127298.4,145.308,139.68,-0.594608
7251,128325,147.02,141.38,-0.586432
7309,129351.6,148.729,143.084,-0.572393
7367,130378.2,150.439,144.789,-0.557396
7425,131404.8,152.152,146.495,-0.548838
7483,132431.4,153.861,148.204,-0.537444
7541,133458,155.574,149.912,-0.519341
7599,134484.6,157.281,151.623,-0.500649
7657,135511.2,158.996,153.333,-0.4758
7715,136537.8,160.707,155.046,-0.471891
7773,137564.4,162.42,156.76,-0.44251
7831,138591,164.13,158.476,-0.407464
7889,139617.6,165.841,160.191,-0.375263
7947,140644.2,167.552,161.907,-0.368677
8005,141670.8,169.258,163.624,-0.31246
8063,142697.4,170.973,165.336,-0.251125
8121,143724,172.683,167.051,-0.227754
8179,144750.6,174.395,168.766,-0.226839
8237,145777.2,176.107,170.482,-0.163941
8295,146803.8,177.817,172.2,-0.123223
8353,147830.4,179.53,173.919,-0.129547
8411,148857,181.236,175.638,-0.067435
8469,149883.6,182.951,177.356,-0.053101
8527,150910.2,184.661,179.076,0.033317
8585,151936.8,186.373,180.795,0.14124
8643,152963.4,188.085,182.515,0.106951
8701,153990,189.795,184.235,0.138657
8759,155016.6,191.505,185.955,0.154476
8817,156043.2,193.216,187.676,0.028254
8875,157069.8,194.926,189.397,0.127911
8933,158096.4,196.638,191.116,0.380007
8991,159123,198.347,192.836,0.170807
9049,160149.6,200.06,194.556,0.33618
9107,161176.2,201.772,196.276,0.341299
9165,162202.8,203.482,197.996,0.391945
9223,163229.4,205.193,199.715,0.337813
9281,164256,206.904,201.435,0.430979
9339,165282.6,208.616,203.156,0.356147
9397,166309.2,210.327,204.876,0.365917
9455,167335.8,212.035,206.597,0.340928
9513,168362.4,213.749,208.317,0.441022
9571,169389,215.459,210.037,0.322103
9629,170415.6,217.171,211.759,0.465301
9687,171442.2,218.881,213.48,0.593565
9745,172468.8,220.594,215.202,0.507948
9803,173495.4,222.303,216.922,0.465158
9861,174522,224.015,218.643,0.363556
9919,175548.6,225.726,220.365,0.556537
9977,176575.2,227.436,222.086,0.62529
10035,177601.8,229.147,223.808,0.639345
10093,178628.4,230.859,225.528,0.498088
10151,179655,232.57,227.249,0.44772
10209,180681.6,234.283,228.97,0.790075
10267,181708.2,235.992,230.692,0.56305
10325,182734.8,237.703,232.412,0.546634
10383,183761.4,239.413,234.134,0.784261
10441,184788,241.125,235.854,0.697667
10499,185814.6,242.836,237.575,0.548306
10557,186841.2,244.549,239.297,0.728772
10615,187867.8,246.259,241.019,0.658195
10673,188894.4,247.97,242.739,0.741363
10731,189921,249.679,244.459,0.585162
10789,190947.6,251.39,246.181,0.68545
10847,191974.2,253.103,247.9,0.67178
10905,193000.8,254.813,249.62,0.826819
10963,194027.4,256.524,251.34,0.750705
11021,195054,258.235,253.06,0.79876
11079,196080.6,259.9457,254.779,0.769035
11137,197107.2,261.655,256.498,0.834516
11195,198133.8,263.3673,258.216,0.882166
11253,199160.4,265.078,259.933,0.844086
11311,200187,266.791,261.652,0.90936
11369,201213.6,268.501,263.37,0.873596
11427,202240.2,270.21,265.089,0.885935
11485,203266.8,271.922,266.806,0.914136
11543,204293.4,273.634,268.525,0.880807
11601,205320,275.345,270.241,0.998901
11659,206346.6,277.057,271.959,0.968355
11717,207373.2,278.769,273.677,0.968304
11775,208399.8,280.477,275.396,0.961433
11833,209426.4,282.189,277.115,0.985503
11891,210453,283.897,278.834,1.037847
11949,211479.6,285.612,280.553,1.076781
12007,212506.2,287.317,282.268,1.069924
12065,213532.8,289.038,283.982,1.095563
12123,214559.4,290.747,285.702,1.082507
12181,215586,292.457,287.424,1.124395
12239,216612.6,294.166,289.144,1.144546
12297,217639.2,295.879,290.862,1.191808
12355,218665.8,297.587,292.574,1.192872
12413,219692.4,299.299,294.277,1.201195
12471,220719,301.012,295.986,1.247505
12529,221745.6,302.722,297.716,1.263034
12587,222772.2,304.432,299.441,1.298685
12645,223798.8,306.141,301.164,1.332935
12703,224825.4,307.852,302.881,1.364464
12761,225852,309.565,304.596,1.397329
12819,226878.6,311.278,306.315,1.434084
12877,227905.2,312.988,308.035,1.472622
12935,228931.8,314.698,309.755,1.510924
12993,229958.4,316.41,311.473,1.547246
13051,230985,318.12,313.191,1.584742
13109,232011.6,319.197,314.868,1.619942
13167,233038.2,319.165,316.063,1.557155
13225,234064.8,319.161,316.835,1.50658
13283,235091.4,319.157,317.334,1.485328
13341,236118,319.154,317.657,1.467531
13399,237144.6,319.153,317.864,1.458326
13457,238171.2,319.152,317.998,1.450877
13515,239197.8,319.151,318.085,1.44681
13573,240224.4,319.151,318.14,1.444925
13631,241251,319.15,318.176,1.441451
13689,242277.6,319.149,318.198,1.435658
13747,243304.2,319.151,318.213,1.438465
13805,244330.8,319.149,318.222,1.441622
13863,245357.4,319.151,318.228,1.434468
13921,246384,319.15,318.232,1.434851
13979,247410.6,319.15,318.235,1.438493
14037,248437.2,319.151,318.236,1.438778
14095,249463.8,319.1504,318.238,1.438462
14153,250490.4,319.15,318.238,1.4398
14211,251517,319.149,318.238,1.439204
14269,252543.6,319.15,318.239,1.435052
14327,253570.2,319.151,318.24,1.436717
14385,254596.8,319.149,318.239,1.435997
14443,255623.4,319.15,318.24,1.4395
14501,256650,319.149,318.24,1.445253
14559,257676.6,319.148,318.238,1.450654
14617,258703.2,319.148,318.235,1.441985
14675,259729.8,319.15,318.233,1.441971
14733,260756.4,319.151,318.232,1.442235
14791,261783,319.152,318.231,1.450768
14849,262809.6,319.15,318.232,1.441173
14907,263836.2,319.15,318.231,1.439774
14956,264703.5,319.15,318.23,1.437935