Folder: NH3_Calorimetry/archive/0.25Kmin_wrong_wt%/data

Note: archive/0.25Kmin_wrong_wt%/data/0wt%_peaks.txt
Index  Time(s)  Furnace Temperature(K)  Sample Temperature(K)  HeatFlow(mW)  Q_Corrected
 11936 138446.0              293.997813             282.199983   -1050.66939 -1051.764403

Note: archive/0.25Kmin_wrong_wt%/data/1.76wt%_peaks.txt
Index  Time(s)  Furnace Temperature(K)  Sample Temperature(K)  HeatFlow(mW)  Q_Corrected
  9467 109805.6              174.653868             161.203291    -13.797295   -11.172417
  9703 112543.2              186.068846             172.568953    -77.430312   -75.052038
  9767 113285.6              189.160025             175.670248    -16.602165   -14.316341
  9818 113877.2              191.627821             178.146185    -99.473385   -97.274391
 11858 137541.2              290.226998             278.290757   -704.124658  -705.418360

Note: archive/0.25Kmin_wrong_wt%/data/3.52wt%_liquidus.txt
Index                      11688.000000
Time(s)                   135569.200000
Furnace Temperature(K)       282.015888
Sample Temperature(K)        269.645108
HeatFlow(mW)                -307.535425
Q_Corrected                 -308.431964
Fc                             0.008291

Note: archive/0.25Kmin_wrong_wt%/data/3.52wt%_liquidus_2.txt
Index                      11679.000000
Time(s)                   135464.800000
Furnace Temperature(K)       281.577528
Sample Temperature(K)        269.640518
HeatFlow(mW)                -356.041026
Q_Corrected                 -356.612224
Fc                             0.009252

Note: archive/0.25Kmin_wrong_wt%/data/3.52wt%_peaks.txt
Index  Time(s)  Furnace Temperature(K)  Sample Temperature(K)  HeatFlow(mW)  Q_Corrected
  9449 109596.8              173.792509             160.305327      0.728383     3.389762
  9708 112601.2              186.309599             172.844115   -104.536827  -102.173418
  9755 113146.4              188.577124             175.124983     -0.597269     1.711533
  9829 114004.8              192.162054             178.713461   -142.187613  -139.997755
 11740 136172.4              284.524590             272.190130   -341.488932  -342.551866
 11848 137425.2              289.754668             277.482639   -525.372299  -526.147177

Note: archive/0.25Kmin_wrong_wt%/data/3.52wt%_peaks_2.txt
Index  Time(s)  Furnace Temperature(K)  Sample Temperature(K)  HeatFlow(mW)  Q_Corrected
  9205 106766.4              161.993605             148.630896    -28.710670   -25.891937
  9417 109225.6              172.241766             158.763129     11.489969    14.171541
  9707 112589.6              186.257254             172.742628   -103.313620  -100.951578
  9752 113111.6              188.438788             174.929114      9.355636    11.677846
  9829 114004.8              192.149451             178.673666   -161.036256  -158.846398
 11780 136636.4              286.452691             274.561764   -539.086924  -539.803624

Note: archive/0.25Kmin_wrong_wt%/data/8wt%_liquidus.txt
Index                      11536.000000
Time(s)                   133806.000000
Furnace Temperature(K)       274.665507
Sample Temperature(K)        262.644814
HeatFlow(mW)                -207.460353
Q_Corrected                 -208.344945
Fc                             0.003190

Note: archive/0.25Kmin_wrong_wt%/data/10wt%_peaks.txt
Index  Time(s)  Furnace Temperature(K)  Sample Temperature(K)  HeatFlow(mW)  Q_Corrected
  9379 108784.8              170.403258             156.972815    111.085199   113.791440
  9690 112392.4              185.453009             171.844710    -47.869191   -45.467616
  9707 112589.6              186.273200             172.669760    -15.799592   -13.437550
  9852 114271.6              193.270163             179.718802   -314.584896  -312.400014
 11476 133110.0              271.765313             259.656986   -225.445832  -225.797636

Note: README.md
# <u>Calorimetry Analysis</u>
*Repository for analysis specific heat capacity analysis of the calorimetry data of H2O-NH3 systems*

Folder Structure:
- **i_data**: all experimental data
  - **26C**: data with T range up to 26 C (299.15 K)
  - **46C**: data with T range up to 26 C (299.15 K)
  - **calibration_ice**: data for calibration of calorimeter
- **i_data_literature**: all literature data
  - **lit_cp**: past NH3-H2O specific heat measurements
- **i_data_processed**: processed experimental data
  - **not_smoothed**: data that has not undergone average smoothing (used for plotting)
- **o_finalPlots**: plots used in the manuscript
- **o_supplementaryPlots**: plots used in the supplementary information
- **z_scripts**: all scripts used in analysis
- **z_unorganized_archive**: folders pre-organization.

File: 0wt%_climb_proc.txt
 Index  Time(s)  Furnace Temperature(K)  Sample Temperature(K)  HeatFlow(mW)  Q_Corrected  Fc
  8501  98600.0              127.951             118.226    -16.5424   -14.0644 NaN
  8532  98959.6              129.453             119.317    -17.431   -14.8896 NaN
  8563  99319.2              130.952             120.451    -18.2465   -15.6299 NaN
  8594  99678.8              132.453             121.623    -18.9821   -16.3192 NaN
  8625 100038.4              133.952             122.828    -19.6718   -16.9647 NaN
  8656 100398.0              135.452             124.065    -20.3095   -17.5692 NaN
  8687 100757.6              136.952             125.329    -20.9215   -18.1366 NaN
  8718 101117.2              138.449             126.618    -21.4733   -18.6611 NaN
  8749 101476.8              139.932             127.926    -21.9756   -19.1536 NaN
  8780 101836.4              141.434             129.251    -22.4074   -19.581 NaN
  8811 102196.0              142.942             130.594    -22.8612   -20.0114 NaN
  8842 102555.6              144.444             131.953    -23.2844   -20.4139 NaN
  8873 102915.2              145.94             133.327    -23.6998   -20.8219 NaN
  8904 103274.8              147.444             134.714    -24.0813   -21.1874 NaN
  8935 103634.4              148.955             136.115    -24.4634   -21.59 NaN
  8966 103994.0              150.45             137.527    -24.8491   -21.9714 NaN
  8997 104353.6              151.941             138.949    -25.1958   -22.3342 NaN
  9028 104713.2              153.427             140.377    -25.505   -22.6335 NaN
  9059 105072.8              154.931             141.811    -25.7911   -22.9312 NaN
  9090 105432.4              156.438             143.253    -26.0851   -23.225 NaN
  9121 105792.0              157.941             144.702    -26.3798   -23.5258 NaN
  9152 106151.6              159.436             146.159    -26.6708   -23.8266 NaN
  9183 106511.2              160.927             147.62    -26.9333   -24.1026 NaN
  9214 106870.8              162.43             149.085    -27.1882   -24.3696 NaN
  9245 107230.4              163.931             150.555    -27.4449   -24.6474 NaN
  9276 107590.0              165.424             152.03    -27.688   -24.9031 NaN
  9307 107949.6              166.927             153.505    -27.9323   -25.1669 NaN
  9338 108309.2              168.427             154.985    -28.1651   -25.4057 NaN
  9369 108668.8              169.925             156.467    -28.4031   -25.6848 NaN
  9400 109028.4              171.42             157.954    -28.6274   -25.9338 NaN
  9431 109388.0              172.92             159.439    -28.8432   -26.1752 NaN
  9462 109747.6              174.419             160.93    -29.0715   -26.4433 NaN
  9493 110107.2              175.911             162.421    -29.2771   -26.6604 NaN
  9524 110466.8              177.412             163.912    -29.497   -26.9285 NaN
  9555 110826.4              178.914             165.405    -29.7071   -27.1747 NaN
  9586 111186.0              180.414             166.901    -29.9323   -27.4351 NaN
  9617 111545.6              181.909             168.4    -30.1502   -27.6751 NaN
  9648 111905.2              183.409             169.899    -30.3724   -27.9217 NaN
  9679 112264.8              184.907             171.4    -30.6035   -28.1942 NaN
  9710 112624.4              186.405             172.906    -30.8385   -28.4761 NaN
  9741 112984.0              187.901             174.412    -31.0615   -28.6997 NaN
  9772 113343.6              189.402             175.919    -31.2909   -29.0073 1.0
  9803 113703.2              190.901             177.429    -31.5215   -29.2793 1.0
  9834 114062.8              192.396             178.941    -31.7382   -29.5546 1.0
  9865 114422.4              193.894             180.454    -31.9647   -29.8385 1.0
  9896 114782.0              195.395             181.968    -32.1807   -30.1024 1.0
  9927 115141.6              196.894             183.484    -32.3967   -30.3292 1.0
  9958 115501.2              198.392             185.001    -32.6189   -30.5846 1.0
  9989 115860.8              199.889             186.519    -32.8269   -30.8619 1.0
 10020 116220.4              201.388             188.037    -33.0193   -31.0832 1.0
 10051 116580.0              202.887             189.557    -33.2246   -31.3454 1.0
 10082 116939.6              204.385             191.077    -33.4374   -31.5268 1.0
 10113 117299.2              205.883             192.599    -33.65   -31.9208 1.0
 10144 117658.8              207.383             194.121    -33.8719   -32.1723 1.0
 10175 118018.4              208.882             195.645    -34.0786   -32.2916 1.0
 10206 118378.0              210.38             197.168    -34.3151   -32.6859 1.0
 10237 118737.6              211.876             198.694    -34.4677   -32.7836 1.0
 10268 119097.2              213.371             200.217    -34.712   -33.0519 1.0
 10299 119456.8              214.871             201.74    -34.8665   -33.2128 1.0
 10330 119816.4              216.372             203.265    -35.1264   -33.5042 1.0
 10361 120176.0              217.87             204.79    -35.3219   -33.8425 1.0
 10392 120535.6              219.37             206.315    -35.4967   -34.2261 1.0
 10423 120895.2              220.864             207.841    -35.7093   -34.2699 1.0
 10454 121254.8              222.361             209.366    -35.8108   -34.3113 1.0
 10485 121614.4              223.863             210.891    -36.0862   -34.5958 1.0
 10516 121974.0              225.367             212.417    -36.295   -34.9918 1.0
 10547 122333.6              226.859             213.944    -36.5987   -35.072 1.0
 10578 122693.2              228.357             215.469    -36.8285   -35.5901 1.0
 10609 123052.8              229.855             216.996    -36.9422   -35.738 1.0
 10640 123412.4              231.354             218.522    -37.1077   -35.8401 1.0
 10671 123772.0              232.853             220.048    -37.3839   -36.3152 1.0
 10702 124131.6              234.354             221.574    -37.5794   -36.4477 1.0
 10733 124491.2              235.852             223.101    -37.7295   -36.7799 1.0
 10764 124850.8              237.354             224.628    -38.0094   -37.0959 1.0
 10795 125210.4              238.851             226.158    -38.2119   -37.3147 1.0
 10826 125570.0              240.344             227.685    -38.4026   -37.59 1.0
 10857 125929.6              241.844             229.214    -38.6985   -37.6582 1.0
 10888 126289.2              243.341             230.74    -38.9151   -37.8906 1.0
 10919 126648.8              244.839             232.268    -39.0173   -38.1014 1.0
 10950 127008.4              246.339             233.794    -39.2551   -38.3741 1.0
 10981 127368.0              247.836             235.32    -39.4908   -38.7559 1.0
 11012 127727.6              249.336             236.849    -39.6861   -38.9418 1.0
 11043 128087.2              250.836             238.376    -40.0061   -39.2084 1.0
 11074 128446.8              252.334             239.904    -40.2364   -39.586 1.0
 11105 128806.4              253.834             241.431    -40.412   -40.1696 1.0
 11136 129166.0              255.337             242.959    -40.5415   -39.9962 1.0
 11167 129525.6              256.834             244.489    -40.9059   -40.2888 1.0
 11198 129885.2              258.327             246.018    -41.129   -40.8461 1.0
 11229 130244.8              259.826             247.546    -41.3155   -41.1543 1.0
 11260 130604.4              261.322             249.076    -41.5405   -41.2833 1.0
 11291 130964.0              262.819             250.603    -41.7265   -41.5594 1.0
 11322 131323.6              264.32             252.13    -41.9616   -41.7295 1.0
 11353 131683.2              265.818             253.657    -42.1839   -41.9694 1.0
 11384 132042.8              267.321             255.185    -42.4678   -42.4434 1.0
 11415 132402.4              268.816             256.712    -42.753   -42.8364 1.0
 11446 132762.0              270.313             258.24    -42.9288   -43.1858 1.0
 11477 133121.6              271.81             259.767    -43.2202   -43.5801 1.0
 11508 133481.2              273.308             261.293    -43.4675   -44.0869 1.0
 11539 133840.8              274.808             262.819    -43.7541   -44.6137 1.0
 11570 134200.4              276.308             264.344    -44.0216   -44.9638 1.0
 11601 134560.0              277.807             265.871    -44.3397   -45.0632 1.0
 11632 134919.6              279.304             267.397    -44.6593   -45.5719 1.0
 11663 135279.2              280.8             268.922    -44.9942   -45.6168 1.0
 11694 135638.8              282.302             270.447    -45.3909   -46.1824 1.0
 11725 135998.4              283.8             271.972    -45.8562   -46.5459 1.0
 11756 136358.0              285.297             273.498    -46.6382   -47.6603 NaN
 11787 136717.6              286.796             275.023   -128.834  -129.479 NaN
 11818 137077.2              288.296             276.534   -381.597  -382.669 NaN
 11849 137436.8              289.79             278.033   -629.137  -629.925 NaN
 11880 137796.4              291.288             279.521   -830.956  -832.063 NaN
 11911 138156.0              292.79             281.005   -977.226  -978.317 NaN
 11942 138515.6              294.287             282.487  -1044.45 -1045.47 NaN
 11973 138875.2              295.778             283.979   -847.274  -848.635 NaN
 12004 139234.8              297.28             285.493   -396.977  -398.29 NaN
 12035 139594.4              298.778             287.028   -191.138  -192.522 NaN
 12066 139954.0              299.297             288.53   -123.732  -125.153 NaN
 12097 140313.6              299.213             289.849    -97.982   -99.483 NaN
 12100 140348.4              299.209             289.966    -96.2571   -97.8191 NaN

File: 6wt%_climb_proc.txt
 Index  Time(s)  Furnace Temperature(K)  Sample Temperature(K)  HeatFlow(mW)  Q_Corrected       Fc
  8501  98600.0              127.957             117.924    -17.6184   -15.1404      NaN
  8533  98971.2              129.505             119.086    -18.8942   -16.3506      NaN
  8565  99342.4              131.051             120.289    -20.4432   -17.8303      NaN
  8597  99713.6              132.602             121.53    -22.4003   -19.7274      NaN
  8629 100084.8              134.147             122.802    -24.3962   -21.6758      NaN
  8661 100456.0              135.691             124.104    -24.7393   -21.9898      NaN
  8693 100827.2              137.241             125.432    -24.3614   -21.5743      NaN
  8725 101198.4              138.791             126.783    -24.6312   -21.8198      NaN
  8757 101569.6              140.337             128.156    -25.0976   -22.2599      NaN
  8789 101940.8              141.88             129.547    -25.5947   -22.7451      NaN
  8821 102312.0              143.432             130.953    -26.0595   -23.2044      NaN
  8853 102683.2              144.978             132.376    -26.5257   -23.6537      NaN
  8885 103054.4              146.52             133.812    -26.9091   -24.0377      NaN
  8917 103425.6              148.064             135.257    -27.2619   -24.3815      NaN
  8949 103796.8              149.62             136.714    -27.6191   -24.7359      NaN
  8981 104168.0              151.169             138.18    -27.9733   -25.0937      NaN
  9013 104539.2              152.708             139.657    -28.3144   -25.4402      NaN
  9045 104910.4              154.247             141.138    -28.5958   -25.7312      NaN
  9077 105281.6              155.799             142.626    -28.8816   -26.0257      NaN
  9109 105652.8              157.354             144.121    -29.1637   -26.3106      NaN
  9141 106024.0              158.902             145.623    -29.467   -26.6292      NaN
  9173 106395.2              160.441             147.13    -29.6629   -26.8273      NaN
  9205 106766.4              161.992             148.641    -29.6348   -26.816      NaN
  9237 107137.6              163.545             150.156    -29.0329   -26.2339      NaN
  9269 107508.8              165.094             151.676    -27.1034   -24.3021      NaN
  9301 107880.0              166.632             153.201    -22.2627   -19.5008      NaN
  9333 108251.2              168.176             154.728    -11.1727    -8.422141      NaN
  9365 108622.4              169.727             156.258     10.8292    13.5512      NaN
  9397 108993.6              171.27             157.793     36.556    39.2498      NaN
  9429 109364.8              172.819             159.328     32.2477    34.9119      NaN
  9461 109736.0              174.368             160.865      3.238774     5.871963      NaN
  9493 110107.2              175.913             162.401    -15.7655   -13.1488      NaN
  9525 110478.4              177.465             163.938    -23.7548   -21.1889      NaN
  9557 110849.6              179.008             165.478    -26.94   -24.4079      NaN
  9589 111220.8              180.559             167.019    -28.3673   -25.8714      NaN
  9621 111592.0              182.107             168.564    -29.2956   -26.8219      NaN
  9653 111963.2              183.647             170.111    -31.4551   -28.9976      NaN
  9685 112334.4              185.197             171.658    -62.6862   -60.2838      NaN
  9717 112705.6              186.744             173.207    -22.2046   -19.8209      NaN
  9749 113076.8              188.287             174.766     -2.386414    -0.057209      NaN
  9781 113448.0              189.835             176.322    -27.96   -25.7035 0.816415
  9813 113819.2              191.386             177.875   -154.451  -152.23 0.814856
  9845 114190.4              192.931             179.423   -192.322  -190.134 0.813276
  9877 114561.6              194.472             180.983    -71.1983   -69.0798 0.811656
  9909 114932.8              196.022             182.547    -45.3686   -43.3015 0.810000
  9941 115304.0              197.574             184.113    -39.7469   -37.7241 0.808307
  9973 115675.2              199.116             185.682    -38.7479   -36.7655 0.806576
 10005 116046.4              200.662             187.25    -38.8032   -36.9166 0.804806
 10037 116417.6              202.212             188.82    -39.1314   -37.1508 0.802991
 10069 116788.8              203.758             190.391    -39.4978   -37.5743 0.801131
 10101 117160.0              205.303             191.962    -39.905   -38.1001 0.799222
 10133 117531.2              206.85             193.534    -40.3223   -38.5718 0.797261
 10165 117902.4              208.393             195.106    -40.7279   -38.9284 0.795245
 10197 118273.6              209.944             196.678    -41.1968   -39.5525 0.793170
 10229 118644.8              211.496             198.252    -41.6478   -40.084 0.791028
 10261 119016.0              213.042             199.827    -42.1218   -40.4345 0.788817
 10293 119387.2              214.584             201.403    -42.6739   -41.019 0.786533
 10325 119758.4              216.128             202.979    -43.1484   -41.5196 0.784169
 10357 120129.6              217.677             204.554    -43.6719   -42.1369 0.781723
 10389 120500.8              219.224             206.131    -44.2496   -43.0184 0.779184
 10421 120872.0              220.768             207.708    -44.8176   -43.4019 0.776546
 10453 121243.2              222.319             209.282    -45.4789   -43.9925 0.773806
 10485 121614.4              223.866             210.86    -46.1077   -44.6174 0.770946
 10517 121985.6              225.406             212.436    -46.7888   -45.4897 0.767965
 10549 122356.8              226.957             214.012    -47.5586   -46.0295 0.764850
 10581 122728.0              228.503             215.588    -48.3284   -47.1222 0.761588
 10613 123099.2              230.047             217.165    -49.1531   -47.8938 0.758165
 10645 123470.4              231.597             218.739    -49.9808   -48.7709 0.754572
 10677 123841.6              233.144             220.315    -50.8458   -49.7404 0.750784
 10709 124212.8              234.692             221.891    -51.8431   -50.8404 0.746785
 10741 124584.0              236.24             223.468    -52.9149   -52.0173 0.742551
 10773 124955.2              237.787             225.045    -54.1348   -53.2426 0.738060
 10805 125326.4              239.333             226.623    -55.335   -54.3844 0.733280
 10837 125697.6              240.873             228.2    -56.6463   -55.7997 0.728184
 10869 126068.8              242.421             229.774    -58.0434   -57.0093 0.722741
 10901 126440.0              243.967             231.349    -59.7334   -58.8591 0.716900
 10933 126811.2              245.514             232.923    -61.4683   -60.5781 0.710610
 10965 127182.4              247.064             234.496    -63.3623   -62.6142 0.703820
 10997 127553.6              248.602             236.07    -65.4965   -64.8332 0.696448
 11029 127924.8              250.153             237.642    -67.7715   -66.8364 0.688428
 11061 128296.0              251.694             239.213    -70.4435   -69.656 0.679658
 11093 128667.2              253.238             240.78    -73.2755   -72.8094 0.670047
 11125 129038.4              254.794             242.348    -76.5025   -76.106 0.659423
 11157 129409.6              256.334             243.914    -80.1949   -79.5508 0.647643
 11189 129780.8              257.89             245.48    -84.4871   -84.3066 0.634502
 11221 130152.0              259.426             247.047    -89.4495   -89.1333 0.619744
 11253 130523.2              260.976             248.611    -95.0766   -94.8393 0.603091
 11285 130894.4              262.534             250.177   -101.721  -101.534 0.584147
 11317 131265.6              264.076             251.745   -109.508  -109.366 0.562423
 11349 131636.8              265.622             253.313   -118.689  -118.51 0.537362
 11381 132008.0              267.164             254.88   -129.341  -129.185 0.508224
 11413 132379.2              268.7             256.443   -141.937  -142.032 0.474095
 11445 132750.4              270.26             258.005   -157.012  -157.29 0.433556
 11477 133121.6              271.788             259.564   -175.498  -175.858 0.384863
 11509 133492.8              273.346             261.119   -197.587  -198.266 0.325389
 11541 133864.0              274.895             262.674   -224.034  -224.902 0.250829
 11573 134235.2              276.427             264.225   -255.478  -256.501 0.154768
 11605 134606.4              277.993             265.775   -291.66  -292.485 0.025199
 11637 134977.6              279.531             267.323   -319.281  -320.111      NaN
 11669 135348.8              281.088             268.873   -339.563  -340.122      NaN
 11701 135720.0              282.651             270.429   -320.858  -321.434      NaN
 11733 136091.2              284.169             271.99   -303.239  -303.959      NaN
 11765 136462.4              285.716             273.546   -225.189  -226.114      NaN
 11797 136833.6              287.274             275.111   -127.852  -128.403      NaN
 11829 137204.8              288.813             276.677    -97.409   -98.405      NaN
 11861 137576.0              290.375             278.246    -87.9076   -89.1857      NaN
 11893 137947.2              291.925             279.818    -85.0889   -86.0966      NaN
 11925 138318.4              293.476             281.393    -84.311   -85.4385      NaN
 11957 138689.6              295.01             282.969    -84.184   -85.6242      NaN
 11989 139060.8              296.557             284.542    -84.0895   -85.467      NaN
 12021 139432.0              298.081             286.112    -84.0103   -85.3835      NaN
 12053 139803.2              299.288             287.668    -83.7135   -85.2201      NaN
 12085 140174.4              299.227             289.084    -81.5904   -82.8773      NaN
 12100 140348.4              299.21             289.679    -79.0115   -80.5735      NaN