Folder: NH3_Calorimetry/i_data_processed/0.25Kmin

Note: i_data_processed/0.25Kmin/3.2wt%_liquidus.txt
Index                      11688.000000
Time(s)                   135569.200000
Furnace Temperature(K)       282.011890
Sample Temperature(K)        270.080165
HeatFlow(mW)                -374.654750
Q_Corrected                 -375.551289
Fc                             0.005327

Note: i_data_processed/0.25Kmin/6wt%_liquidus.txt
Index                      11610.000000
Time(s)                   134664.400000
Furnace Temperature(K)       278.235431
Sample Temperature(K)        266.015020
HeatFlow(mW)                -296.908051
Q_Corrected                 -297.799668
Fc                             0.000840

Note: README.md
# <u>Calorimetry Analysis</u>
*Repository for analysis specific heat capacity analysis of the calorimetry data of H2O-NH3 systems*

Folder Structure:
- **i_data**: all experimental data
  - **26C**: data with T range up to 26 C (299.15 K)
  - **46C**: data with T range up to 26 C (299.15 K)
  - **calibration_ice**: data for calibration of calorimeter
- **i_data_literature**: all literature data
  - **lit_cp**: past NH3-H2O specific heat measurements
- **i_data_processed**: processed experimental data
  - **not_smoothed**: data that has not undergone average smoothing (used for plotting)
- **o_finalPlots**: plots used in the manuscript
- **o_supplementaryPlots**: plots used in the supplementary information
- **z_scripts**: all scripts used in analysis
- **z_unorganized_archive**: folders pre-organization.

File: 8wt%_climb_proc.txt
 Index  Time(s)  Furnace Temperature(K)  Sample Temperature(K)  HeatFlow(mW)  Q_Corrected       Fc
  8501  98600.0              127.955             118.418    -17.3872   -14.9091      NaN
  8533  98971.2              129.5             119.525    -19.0711   -16.5274      NaN
  8565  99342.4              131.046             120.678    -21.1474   -18.5344      NaN
  8597  99713.6              132.597             121.875    -23.6942   -21.0213      NaN
  8629 100084.8              134.144             123.108    -25.7641   -23.0437      NaN
  8661 100456.0              135.691             124.376    -25.595   -22.8456      NaN
  8693 100827.2              137.241             125.674    -25.2984   -22.5113      NaN
  8725 101198.4              138.788             126.999    -25.6718   -22.8605      NaN
  8757 101569.6              140.334             128.347    -26.2082   -23.3704      NaN
  8789 101940.8              141.882             129.717    -26.7675   -23.9179      NaN
  8821 102312.0              143.432             131.106    -27.332   -24.4769      NaN
  8853 102683.2              144.977             132.512    -27.8768   -25.0048      NaN
  8885 103054.4              146.522             133.933    -28.3575   -25.4861      NaN
  8917 103425.6              148.07             135.367    -28.7897   -25.9093      NaN
  8949 103796.8              149.616             136.814    -29.2175   -26.3343      NaN
  8981 104168.0              151.165             138.271    -29.5911   -26.7116      NaN
  9013 104539.2              152.714             139.738    -29.9624   -27.0882      NaN
  9045 104910.4              154.263             141.213    -30.307   -27.4424      NaN
  9077 105281.6              155.806             142.699    -30.6511   -27.7952      NaN
  9109 105652.8              157.351             144.19    -30.9773   -28.1242      NaN
  9141 106024.0              158.899             145.689    -31.2488   -28.4109      NaN
  9173 106395.2              160.445             147.192    -31.4479   -28.6123      NaN
  9205 106766.4              161.993             148.702    -31.4123   -28.5936      NaN
  9237 107137.6              163.54             150.215    -30.7358   -27.9368      NaN
  9269 107508.8              165.09             151.733    -28.547   -25.7456      NaN
  9301 107880.0              166.637             153.256    -23.0205   -20.2585      NaN
  9333 108251.2              168.183             154.783    -10.8603    -8.109793      NaN
  9365 108622.4              169.727             156.314     10.1185    12.8406      NaN
  9397 108993.6              171.274             157.848     29.1255    31.8193      NaN
  9429 109364.8              172.823             159.386     28.7138    31.3779      NaN
  9461 109736.0              174.371             160.926     23.1909    25.8241      NaN
  9493 110107.2              175.916             162.465     16.7358    19.3525      NaN
  9525 110478.4              177.46             164.006      4.641938     7.207822      NaN
  9557 110849.6              179.008             165.546     -9.155432    -6.623292      NaN
  9589 111220.8              180.558             167.089    -19.4346   -16.9386      NaN
  9621 111592.0              182.105             168.633    -25.6729   -23.1991      NaN
  9653 111963.2              183.649             170.179    -31.0021   -28.5446      NaN
  9685 112334.4              185.196             171.725    -66.025   -63.6226      NaN
  9717 112705.6              186.744             173.272    -51.4582   -49.0745      NaN
  9749 113076.8              188.289             174.83     11.0398    13.369      NaN
  9781 113448.0              189.834             176.386    -25.3316   -23.0751 0.755133
  9813 113819.2              191.382             177.938   -172.338  -170.117 0.753056
  9845 114190.4              192.93             179.482   -273.409  -271.222 0.750955
  9877 114561.6              194.476             181.036   -105.322  -103.203 0.748801
  9909 114932.8              196.022             182.599    -56.1676   -54.1005 0.746591
  9941 115304.0              197.569             184.165    -44.896   -42.8732 0.744333
  9973 115675.2              199.115             185.733    -42.511   -40.5285 0.742025
 10005 116046.4              200.663             187.301    -42.2494   -40.3628 0.739663
 10037 116417.6              202.21             188.871    -42.5182   -40.5376 0.737242
 10069 116788.8              203.759             190.44    -42.9556   -41.0321 0.734762
 10101 117160.0              205.304             192.012    -43.4032   -41.5982 0.732214
 10133 117531.2              206.85             193.584    -43.91   -42.1594 0.729597
 10165 117902.4              208.398             195.156    -44.4669   -42.6674 0.726906
 10197 118273.6              209.944             196.729    -45.0175   -43.3731 0.724136
 10229 118644.8              211.489             198.303    -45.5326   -43.9688 0.721278
 10261 119016.0              213.037             199.876    -46.1758   -44.4884 0.718331
 10293 119387.2              214.584             201.45    -46.8019   -45.147 0.715286
 10325 119758.4              216.131             203.025    -47.4505   -45.8217 0.712133
 10357 120129.6              217.677             204.599    -48.0807   -46.5458 0.708869
 10389 120500.8              219.224             206.175    -48.7629   -47.5316 0.705483
 10421 120872.0              220.771             207.75    -49.5472   -48.1315 0.701966
 10453 121243.2              222.318             209.325    -50.3642   -48.8778 0.698307
 10485 121614.4              223.865             210.902    -51.2099   -49.7196 0.694493
 10517 121985.6              225.411             212.477    -52.0462   -50.7471 0.690514
 10549 122356.8              226.957             214.054    -52.9723   -51.4432 0.686354
 10581 122728.0              228.504             215.63    -54.0585   -52.8524 0.681999
 10613 123099.2              230.054             217.208    -55.1389   -53.8796 0.677425
 10645 123470.4              231.598             218.785    -56.2605   -55.0506 0.672620
 10677 123841.6              233.144             220.362    -57.4897   -56.3843 0.667558
 10709 124212.8              234.693             221.939    -58.7698   -57.7671 0.662213
 10741 124584.0              236.238             223.516    -60.3279   -59.4302 0.656557
 10773 124955.2              237.783             225.094    -61.8935   -61.0013 0.650556
 10805 125326.4              239.332             226.67    -63.5612   -62.6106 0.644174
 10837 125697.6              240.877             228.247    -65.3552   -64.5087 0.637370
 10869 126068.8              242.424             229.824    -67.4273   -66.3931 0.630084
 10901 126440.0              243.971             231.4    -69.4883   -68.614 0.622271
 10933 126811.2              245.518             232.976    -71.8827   -70.9925 0.613853
 10965 127182.4              247.064             234.551    -74.5338   -73.7857 0.604765
 10997 127553.6              248.612             236.129    -77.4643   -76.801 0.594879
 11029 127924.8              250.159             237.706    -80.7235   -79.7884 0.584113
 11061 128296.0              251.706             239.283    -84.382   -83.5946 0.572333
 11093 128667.2              253.252             240.858    -88.4746   -88.0084 0.559387
 11125 129038.4              254.798             242.435    -93.1322   -92.7358 0.545065
 11157 129409.6              256.344             244.011    -98.3478   -97.7037 0.529167
 11189 129780.8              257.89             245.586   -104.165  -103.984 0.511407
 11221 130152.0              259.439             247.162   -110.805  -110.489 0.491453
 11253 130523.2              260.985             248.736   -118.519  -118.281 0.468899
 11285 130894.4              262.531             250.311   -127.387  -127.2 0.443212
 11317 131265.6              264.079             251.885   -137.722  -137.58 0.413780
 11349 131636.8              265.626             253.46   -149.707  -149.528 0.379772
 11381 132008.0              267.172             255.032   -163.489  -163.333 0.340203
 11413 132379.2              268.719             256.604   -179.348  -179.443 0.293641
 11445 132750.4              270.264             258.176   -197.23  -197.508 0.238201
 11477 133121.6              271.811             259.747   -214.957  -215.317 0.171307
 11509 133492.8              273.359             261.319   -208.35  -209.029 0.088968
 11541 133864.0              274.907             262.891   -207.603  -208.471      NaN
 11573 134235.2              276.454             264.464   -212.995  -214.018      NaN
 11605 134606.4              277.999             266.035   -235.342  -236.167      NaN
 11637 134977.6              279.545             267.606   -265.296  -266.126      NaN
 11669 135348.8              281.094             269.177   -232.901  -233.46      NaN
 11701 135720.0              282.637             270.753   -160.256  -160.833      NaN
 11733 136091.2              284.186             272.332   -106.501  -107.221      NaN
 11765 136462.4              285.733             273.912    -89.7155   -90.6408      NaN
 11797 136833.6              287.279             275.492    -84.6329   -85.1842      NaN
 11829 137204.8              288.826             277.072    -83.0899   -84.0859      NaN
 11861 137576.0              290.372             278.65    -82.635   -83.913      NaN
 11893 137947.2              291.919             280.227    -82.4904   -83.4981      NaN
 11925 138318.4              293.466             281.805    -82.4761   -83.6036      NaN
 11957 138689.6              295.011             283.38    -82.6785   -84.1187      NaN
 11989 139060.8              296.557             284.956    -82.8556   -84.2331      NaN
 12021 139432.0              298.103             286.529    -83.0191   -84.3924      NaN
 12053 139803.2              299.328             288.098    -83.1001   -84.6067      NaN
 12085 140174.4              299.241             289.527    -81.1418   -82.4287      NaN
 12100 140348.4              299.215             290.124    -78.6146   -80.1765      NaN