Folder: NH3_Calorimetry/i_data_processed/27Sep

Note: i_data_processed/27Sep/2.84wt%_peaks.txt
Index  Time(s)  Furnace Temperature(K)  Sample Temperature(K)  HeatFlow(mW)  Q_Corrected
  8031 135707.0              159.313391             153.622420      8.771759     9.869794
  8658 146303.3              176.985342             171.328314    -28.628553   -27.898749
  8685 146759.6              177.738623             172.091620      4.425428     5.094858
  8876 149987.5              183.123930             177.489760   -100.669513  -100.115756
 12181 205842.0              276.214539             271.011667   -248.058141  -248.563515

Note: i_data_processed/27Sep/5.11wt%_peaks.txt
Index  Time(s)  Furnace Temperature(K)  Sample Temperature(K)  HeatFlow(mW)  Q_Corrected
  8882 150088.9              183.290419             177.655745   -127.449958  -126.974528
  8882 150088.9              183.290419             177.655745   -127.449958  -126.974528
 12081 204152.0              273.399283             268.212608   -170.036221  -170.459475
 12081 204152.0              273.399283             268.212608   -170.036221  -170.459475

Note: i_data_processed/27Sep/26.96wt%_peaks.txt
Index  Time(s)  Furnace Temperature(K)  Sample Temperature(K)  HeatFlow(mW)  Q_Corrected
  7756 131059.5              151.568160             145.915114    188.384780   189.569189
  8409 142095.2              169.972975             164.285742    -12.147946   -11.261773
  8933 150950.8              184.728705             179.043494   -236.601256  -236.071174
  9924 167698.7              212.638380             207.151061    -28.526591   -28.523581

Note: README.md
# <u>Calorimetry Analysis</u>
*Repository for analysis specific heat capacity analysis of the calorimetry data of H2O-NH3 systems*

Folder Structure:
- **i_data**: all experimental data
  - **26C**: data with T range up to 26 C (299.15 K)
  - **46C**: data with T range up to 26 C (299.15 K)
  - **calibration_ice**: data for calibration of calorimeter
- **i_data_literature**: all literature data
  - **lit_cp**: past NH3-H2O specific heat measurements
- **i_data_processed**: processed experimental data
  - **not_smoothed**: data that has not undergone average smoothing (used for plotting)
- **o_finalPlots**: plots used in the manuscript
- **o_supplementaryPlots**: plots used in the supplementary information
- **z_scripts**: all scripts used in analysis
- **z_unorganized_archive**: folders pre-organization.

File: 6.88wt%_climb_proc.txt
 Index  Time(s)  Furnace Temperature(K)  Sample Temperature(K)  HeatFlow(mW)  Q_Corrected       Fc
  6001 101400.0              108.577             108.947     -0.154553     0.329436      NaN
  6063 102447.8              108.542             108.882     -0.208574     0.293540      NaN
  6125 103495.6              108.493             108.824     -0.229375     0.255897      NaN
  6187 104543.4              108.454             108.77     -0.250500     0.250453      NaN
  6249 105591.2              108.574             108.722     -0.301463     0.201872      NaN
  6311 106639.0              110.869             109.048     -2.814612    -2.158737      NaN
  6373 107686.8              112.601             109.802     -4.779429    -3.871676      NaN
  6435 108734.6              114.355             110.83     -6.177664    -5.119650      NaN
  6497 109782.4              116.099             112.054     -7.226854    -6.067458      NaN
  6559 110830.2              117.852             113.417     -8.058483    -6.829007      NaN
  6621 111878.0              119.596             114.883     -8.753762    -7.472772      NaN
  6683 112925.8              121.349             116.423     -9.440169    -8.121314      NaN
  6745 113973.6              123.096             118.016    -10.2257    -8.884356      NaN
  6807 115021.4              124.844             119.646    -11.4027   -10.0505      NaN
  6869 116069.2              126.591             121.304    -12.7272   -11.3765      NaN
  6931 117117.0              128.334             122.981    -12.2918   -10.9456      NaN
  6993 118164.8              130.084             124.676    -12.0997   -10.7597      NaN
  7055 119212.6              131.831             126.378    -12.2049   -10.867      NaN
  7117 120260.4              133.574             128.087    -12.325   -11.0053      NaN
  7179 121308.2              135.303             129.791    -12.3516   -11.0402      NaN
  7241 122356.0              137.047             131.484    -12.3723   -11.0701      NaN
  7303 123403.8              138.786             133.165    -12.3594   -11.0754      NaN
  7365 124451.6              140.571             134.84    -12.4287   -11.1658      NaN
  7427 125499.4              142.325             136.525    -12.5568   -11.2952      NaN
  7489 126547.2              144.066             138.247    -12.8934   -11.6564      NaN
  7551 127595.0              145.816             139.991    -13.102   -11.8735      NaN
  7613 128642.8              147.564             141.741    -13.1785   -11.955      NaN
  7675 129690.6              149.294             143.498    -13.115   -11.9083      NaN
  7737 130738.4              151.043             145.256    -12.4323   -11.2458      NaN
  7799 131786.2              152.787             147.014     -9.831318    -8.668253      NaN
  7861 132834.0              154.542             148.771     -1.491825    -0.336661      NaN
  7923 133881.8              156.282             150.532     23.5114    24.6247      NaN
  7985 134929.6              158.035             152.298     43.2076    44.3247      NaN
  8047 135977.4              159.775             154.056      3.758091     4.856079      NaN
  8109 137025.2              161.516             155.805    -10.592    -9.533144      NaN
  8171 138073.0              163.26             157.556    -11.6342   -10.5827      NaN
  8233 139120.8              165.01             159.305    -11.7919   -10.7748      NaN
  8295 140168.6              166.756             161.056    -11.8328   -10.8501      NaN
  8357 141216.4              168.507             162.804    -11.9488   -11.0325      NaN
  8419 142264.2              170.259             164.559    -12.0589   -11.1351      NaN
  8481 143312.0              171.995             166.311    -12.154   -11.2871      NaN
  8543 144359.8              173.744             168.063    -12.483   -11.676      NaN
  8605 145407.6              175.488             169.814    -13.8746   -13.0948      NaN
  8667 146455.4              177.234             171.567    -11.6035   -10.9299      NaN
  8729 147503.2              178.983             173.321    -12.5393   -11.9011      NaN
  8791 148551.0              180.733             175.07    -13.8681   -13.2707      NaN
  8853 149598.8              182.469             176.818   -119.687  -119.028 0.788921
  8915 150646.6              184.218             178.547    -60.769   -60.2021 0.786919
  8977 151694.4              185.973             180.302    -16.9401   -16.4438 0.784847
  9039 152742.2              187.715             182.056    -16.4626   -16.0338 0.782733
  9101 153790.0              189.455             183.806    -16.4891   -16.069 0.780576
  9163 154837.8              191.207             185.557    -16.5796   -16.241 0.778366
  9225 155885.6              192.958             187.311    -16.7757   -16.343 0.776097
  9287 156933.4              194.704             189.064    -16.9624   -16.6361 0.773768
  9349 157981.2              196.437             190.818    -17.14   -16.8401 0.771375
  9411 159029.0              198.176             192.565    -17.4455   -17.4214 0.768920
  9473 160076.8              199.939             194.309    -17.5016   -17.3732 0.766394
  9535 161124.6              201.69             196.064    -17.7818   -17.7178 0.763773
  9597 162172.4              203.431             197.821    -18.1153   -17.9505 0.761059
  9659 163220.2              205.176             199.576    -18.3942   -18.2891 0.758255
  9721 164268.0              206.91             201.329    -18.688   -18.7495 0.755349
  9783 165315.8              208.672             203.078    -18.7936   -18.796 0.752341
  9845 166363.6              210.422             204.836    -19.1403   -19.2107 0.749196
  9907 167411.4              212.166             206.596    -19.4641   -19.5097 0.745917
  9969 168459.2              213.911             208.356    -20.0495   -20.2123 0.742493
 10031 169507.0              215.659             210.117    -20.4288   -20.5507 0.738913
 10093 170554.8              217.408             211.881    -20.7612   -20.9257 0.735155
 10155 171602.6              219.155             213.648    -21.1261   -21.4052 0.731201
 10217 172650.4              220.9             215.419    -21.7906   -21.8471 0.727031
 10279 173698.2              222.64             217.188    -22.3825   -22.6541 0.722636
 10341 174746.0              224.392             218.952    -22.8014   -23.1126 0.718003
 10403 175793.8              226.129             220.718    -23.3037   -23.7159 0.713084
 10465 176841.6              227.823             222.456    -23.6348   -24.0913 0.707940
 10527 177889.4              229.526             224.048    -22.2612   -22.6297 0.702933
 10589 178937.2              231.378             225.639    -23.349   -23.824 0.697618
 10651 179985.0              233.15             227.308    -25.0602   -25.3391 0.691670
 10713 181032.8              234.898             229.042    -26.6972   -27.0842 0.685034
 10775 182080.6              236.65             230.83    -28.5616   -28.9954 0.677640
 10837 183128.4              238.388             232.655    -30.3716   -30.7958 0.669434
 10899 184176.2              240.124             234.487    -31.9135   -32.3813 0.660426
 10961 185224.0              241.865             236.313    -33.5334   -33.8345 0.650558
 11023 186271.8              243.608             238.129    -35.1461   -35.9726 0.639711
 11085 187319.6              245.347             239.934    -36.9822   -37.3566 0.627732
 11147 188367.4              247.097             241.725    -39.1947   -39.631 0.614461
 11209 189415.2              248.839             243.513    -41.8414   -42.2124 0.599568
 11271 190463.0              250.585             245.291    -45.0556   -45.377 0.582811
 11333 191510.8              252.331             247.062    -48.7103   -49.2141 0.563795
 11395 192558.6              254.077             248.827    -53.0733   -53.4783 0.542048
 11457 193606.4              255.822             250.589    -58.4501   -58.9671 0.516949
 11519 194654.2              257.569             252.348    -65.008   -65.2863 0.487695
 11581 195702.0              259.314             254.104    -72.9756   -73.3172 0.453301
 11643 196749.8              261.061             255.859    -82.9808   -83.5324 0.412344
 11705 197797.6              262.808             257.612    -94.9579   -95.382 0.362977
 11767 198845.4              264.555             259.363   -108.047  -108.488 0.302451
 11829 199893.2              266.3             261.113   -120.206  -120.731 0.226708
 11891 200941.0              268.046             262.864   -119.36  -119.777 0.128955
 11953 201988.8              269.795             264.618    -93.7589   -94.2473      NaN
 12015 203036.6              271.54             266.381    -36.2661   -36.816      NaN
 12077 204084.4              273.285             268.145    -32.3975   -32.803      NaN
 12139 205132.2              275.032             269.906    -32.3563   -32.8434      NaN
 12201 206180.0              276.778             271.664    -32.3115   -32.8308      NaN
 12263 207227.8              278.527             273.42    -32.2576   -32.7653      NaN
 12325 208275.6              280.272             275.179    -32.2855   -32.8175      NaN
 12387 209323.4              282.018             276.935    -32.2749   -32.7374      NaN
 12449 210371.2              283.764             278.691    -32.2508   -32.7128      NaN
 12511 211419.0              285.509             280.446    -32.2662   -32.7431      NaN
 12573 212466.8              287.257             282.201    -32.2919   -32.7828      NaN
 12635 213514.6              289.003             283.955    -32.3014   -32.7995      NaN
 12697 214562.4              290.749             285.708    -32.3228   -32.867      NaN
 12759 215610.2              292.494             287.462    -32.3279   -32.9034      NaN
 12821 216658.0              294.243             289.214    -32.3147   -32.9061      NaN
 12883 217705.8              295.99             290.965    -32.2633   -32.9174      NaN
 12900 217993.1              296.467             291.444    -32.2405   -32.9181      NaN

File: 8.73wt%_climb_proc.txt
 Index  Time(s)  Furnace Temperature(K)  Sample Temperature(K)  HeatFlow(mW)  Q_Corrected       Fc
  6001 101400.0              107.324             107.769     -0.068002     0.415987      NaN
  6063 102447.8              107.279             107.684     -0.123749     0.378365      NaN
  6125 103495.6              107.228             107.608     -0.152956     0.332316      NaN
  6187 104543.4              107.23             107.548     -0.243637     0.257316      NaN
  6249 105591.2              109.118             107.696     -1.912722    -1.409387      NaN
  6311 106639.0              110.854             108.346     -4.199027    -3.543152      NaN
  6373 107686.8              112.607             109.299     -5.682512    -4.774759      NaN
  6435 108734.6              114.359             110.47     -6.804615    -5.746601      NaN
  6497 109782.4              116.105             111.798     -7.667213    -6.507817      NaN
  6559 110830.2              117.853             113.238     -8.380775    -7.151299      NaN
  6621 111878.0              119.599             114.759     -8.996733    -7.715743      NaN
  6683 112925.8              121.346             116.336     -9.589700    -8.270845      NaN
  6745 113973.6              123.09             117.957    -10.3733    -9.031948      NaN
  6807 115021.4              124.85             119.601    -11.5708   -10.2185      NaN
  6869 116069.2              126.581             121.272    -13.0424   -11.6917      NaN
  6931 117117.0              128.335             122.953    -12.5394   -11.1932      NaN
  6993 118164.8              130.088             124.654    -12.2814   -10.9414      NaN
  7055 119212.6              131.824             126.353    -12.296   -10.9581      NaN
  7117 120260.4              133.566             128.06    -12.4311   -11.1114      NaN
  7179 121308.2              135.333             129.774    -12.5889   -11.2775      NaN
  7241 122356.0              137.062             131.493    -12.6694   -11.3672      NaN
  7303 123403.8              138.828             133.216    -12.7912   -11.5073      NaN
  7365 124451.6              140.563             134.944    -12.8745   -11.6116      NaN
  7427 125499.4              142.309             136.676    -12.9751   -11.7134      NaN
  7489 126547.2              144.045             138.406    -13.0461   -11.8091      NaN
  7551 127595.0              145.801             140.138    -13.1309   -11.9025      NaN
  7613 128642.8              147.538             141.874    -13.1938   -11.9704      NaN
  7675 129690.6              149.301             143.611    -13.1631   -11.9565      NaN
  7737 130738.4              151.039             145.351    -12.6668   -11.4803      NaN
  7799 131786.2              152.79             147.09    -10.2756    -9.112582      NaN
  7861 132834.0              154.533             148.833     -1.684458    -0.529294      NaN
  7923 133881.8              156.281             150.585     24.1973    25.3106      NaN
  7985 134929.6              158.028             152.345     52.852    53.9691      NaN
  8047 135977.4              159.773             154.1     11.2144    12.3124      NaN
  8109 137025.2              161.511             155.844     -8.947017    -7.888127      NaN
  8171 138073.0              163.262             157.588    -11.0215    -9.969924      NaN
  8233 139120.8              165.007             159.331    -11.4134   -10.3964      NaN
  8295 140168.6              166.754             161.076    -11.5766   -10.5939      NaN
  8357 141216.4              168.506             162.822    -11.689   -10.7726      NaN
  8419 142264.2              170.253             164.569    -11.8066   -10.8829      NaN
  8481 143312.0              172             166.318    -11.9472   -11.0803      NaN
  8543 144359.8              173.744             168.069    -12.3304   -11.5234      NaN
  8605 145407.6              175.489             169.82    -13.4988   -12.7189      NaN
  8667 146455.4              177.235             171.574    -11.6202   -10.9466      NaN
  8729 147503.2              178.978             173.33    -12.4932   -11.8549      NaN
  8791 148551.0              180.727             175.081    -14.6671   -14.0698      NaN
  8853 149598.8              182.475             176.831   -123.308  -122.649 0.732144
  8915 150646.6              184.219             178.564    -76.004   -75.4371 0.729598
  8977 151694.4              185.968             180.323    -17.5512   -17.0549 0.726962
  9039 152742.2              187.712             182.083    -16.7143   -16.2855 0.724270
  9101 153790.0              189.462             183.842    -16.79   -16.3699 0.721517
  9163 154837.8              191.21             185.6    -17.02   -16.6814 0.718700
  9225 155885.6              192.957             187.358    -17.3173   -16.8846 0.715812
  9287 156933.4              194.699             189.116    -17.4589   -17.1327 0.712848
  9349 157981.2              196.451             190.873    -17.6309   -17.331 0.709802
  9411 159029.0              198.196             192.631    -18.066   -18.0419 0.706664
  9473 160076.8              199.941             194.389    -18.2668   -18.1385 0.703431
  9535 161124.6              201.68             196.146    -18.416   -18.3521 0.700094
  9597 162172.4              203.429             197.902    -18.5456   -18.3808 0.696647
  9659 163220.2              205.179             199.657    -18.7803   -18.6752 0.693083
  9721 164268.0              206.928             201.413    -19.1269   -19.1884 0.689385
  9783 165315.8              208.671             203.169    -19.471   -19.4734 0.685544
  9845 166363.6              210.418             204.927    -19.7559   -19.8264 0.681546
  9907 167411.4              212.163             206.682    -20.2094   -20.2551 0.677387
  9969 168459.2              213.908             208.438    -20.4771   -20.6399 0.673044
 10031 169507.0              215.657             210.195    -20.8676   -20.9895 0.668503
 10093 170554.8              217.404             211.955    -21.333   -21.4975 0.663734
 10155 171602.6              219.151             213.717    -21.9572   -22.2363 0.658721
 10217 172650.4              220.895             215.474    -22.5211   -22.5777 0.653463
 10279 173698.2              222.645             217.23    -22.9147   -23.1863 0.647918
 10341 174746.0              224.385             218.988    -23.5879   -23.8991 0.642051
 10403 175793.8              226.132             220.746    -24.0964   -24.5085 0.635831
 10465 176841.6              227.882             222.502    -24.8611   -25.3176 0.629228
 10527 177889.4              229.625             224.259    -25.6449   -26.0134 0.622185
 10589 178937.2              231.381             226.014    -26.5605   -27.0355 0.614657
 10651 179985.0              233.116             227.774    -27.7077   -27.9866 0.606557
 10713 181032.8              234.872             229.532    -28.6134   -29.0004 0.597844
 10775 182080.6              236.609             231.291    -29.9247   -30.3586 0.588410
 10837 183128.4              238.36             233.052    -31.3465   -31.7707 0.578161
 10899 184176.2              240.101             234.805    -32.576   -33.0438 0.567021
 10961 185224.0              241.856             236.561    -34.5316   -34.8327 0.554794
 11023 186271.8              243.6             238.318    -36.6782   -37.5047 0.541311
 11085 187319.6              245.342             240.079    -39.0453   -39.4196 0.526342
 11147 188367.4              247.087             241.832    -41.4202   -41.8564 0.509717
 11209 189415.2              248.843             243.586    -44.5054   -44.8763 0.491066
 11271 190463.0              250.581             245.34    -48.1496   -48.471 0.469998
 11333 191510.8              252.327             247.093    -52.2838   -52.7876 0.446046
 11395 192558.6              254.078             248.848    -57.3268   -57.7318 0.418564
 11457 193606.4              255.824             250.605    -63.5237   -64.0407 0.386750
 11519 194654.2              257.57             252.362    -70.9664   -71.2447 0.349626
 11581 195702.0              259.312             254.116    -79.9437   -80.2853 0.305956
 11643 196749.8              261.061             255.87    -90.8986   -91.4502 0.253969
 11705 197797.6              262.802             257.619   -103.791  -104.215 0.191410
 11767 198845.4              264.554             259.366   -115.008  -115.449 0.114736
 11829 199893.2              266.298             261.114    -94.3956   -94.9205 0.018720
 11891 200941.0              268.045             262.871    -38.0375   -38.455      NaN
 11953 201988.8              269.802             264.633    -31.8232   -32.3116      NaN
 12015 203036.6              271.534             266.396    -31.5962   -32.1462      NaN
 12077 204084.4              273.288             268.15    -31.5924   -31.9979      NaN
 12139 205132.2              275.029             269.908    -31.5921   -32.0791      NaN
 12201 206180.0              276.776             271.66    -31.8162   -32.3355      NaN
 12263 207227.8              278.524             273.412    -31.9034   -32.4111      NaN
 12325 208275.6              280.272             275.166    -31.9728   -32.5048      NaN
 12387 209323.4              282.018             276.92    -32.0314   -32.4938      NaN
 12449 210371.2              283.764             278.675    -32.0028   -32.4647      NaN
 12511 211419.0              285.511             280.428    -31.9633   -32.4402      NaN
 12573 212466.8              287.256             282.179    -31.9611   -32.452      NaN
 12635 213514.6              289.002             283.932    -31.9236   -32.4216      NaN
 12697 214562.4              290.75             285.685    -31.9372   -32.4814      NaN
 12759 215610.2              292.497             287.439    -31.9545   -32.5301      NaN
 12821 216658.0              294.242             289.192    -31.9547   -32.5461      NaN
 12883 217705.8              295.989             290.943    -31.9017   -32.5558      NaN
 12900 217993.1              296.471             291.422    -31.8597   -32.5373      NaN