Folder: NH3_Calorimetry/i_data_processed/old_wt%

Note: i_data_processed/old_wt%/1.6wt%_liquidus.txt
Index                      12211.000000
Time(s)                   206349.000000
Furnace Temperature(K)       277.053848
Sample Temperature(K)        271.903895
HeatFlow(mW)                -262.817354
Q_Corrected                 -263.297373
Fc                             0.012470

Note: i_data_processed/old_wt%/3.24wt%_liquidus.txt
Index                      12146.000000
Time(s)                   205250.500000
Furnace Temperature(K)       275.227544
Sample Temperature(K)        270.029775
HeatFlow(mW)                -238.811515
Q_Corrected                 -239.324675
Fc                             0.005001

Note: README.md
# <u>Calorimetry Analysis</u>
*Repository for analysis specific heat capacity analysis of the calorimetry data of H2O-NH3 systems*

Folder Structure:
- **i_data**: all experimental data
  - **26C**: data with T range up to 26 C (299.15 K)
  - **46C**: data with T range up to 26 C (299.15 K)
  - **calibration_ice**: data for calibration of calorimeter
- **i_data_literature**: all literature data
  - **lit_cp**: past NH3-H2O specific heat measurements
- **i_data_processed**: processed experimental data
  - **not_smoothed**: data that has not undergone average smoothing (used for plotting)
- **o_finalPlots**: plots used in the manuscript
- **o_supplementaryPlots**: plots used in the supplementary information
- **z_scripts**: all scripts used in analysis
- **z_unorganized_archive**: folders pre-organization.

File: 1.6wt%_climb_proc.txt
 Index  Time(s)  Furnace Temperature(K)  Sample Temperature(K)  HeatFlow(mW)  Q_Corrected       Fc
  6001 101400.0              106.087             106.285     -0.475387     0.008602      NaN
  6063 102447.8              106.103             106.276     -0.518290    -0.016176      NaN
  6125 103495.6              106.115             106.276     -0.557965    -0.072693      NaN
  6187 104543.4              107.147             106.311     -0.969774    -0.468821      NaN
  6249 105591.2              109.068             106.823     -3.541388    -3.038053      NaN
  6311 106639.0              110.822             107.636     -4.960962    -4.305087      NaN
  6373 107686.8              112.591             108.682     -6.124328    -5.216575      NaN
  6435 108734.6              114.387             109.925     -7.154055    -6.096041      NaN
  6497 109782.4              116.126             111.317     -7.917578    -6.758182      NaN
  6559 110830.2              117.892             112.824     -8.569726    -7.340250      NaN
  6621 111878.0              119.626             114.423     -9.131388    -7.850398      NaN
  6683 112925.8              121.36             116.073     -9.495827    -8.176972      NaN
  6745 113973.6              123.105             117.752     -9.819376    -8.478051      NaN
  6807 115021.4              124.844             119.448    -10.1908    -8.838558      NaN
  6869 116069.2              126.591             121.156    -10.5786    -9.227882      NaN
  6931 117117.0              128.341             122.869    -10.617    -9.270836      NaN
  6993 118164.8              130.085             124.587    -10.6235    -9.283447      NaN
  7055 119212.6              131.838             126.313    -10.7314    -9.393428      NaN
  7117 120260.4              133.57             128.037    -10.7551    -9.435406      NaN
  7179 121308.2              135.315             129.765    -10.8649    -9.553478      NaN
  7241 122356.0              137.061             131.485    -10.8989    -9.596663      NaN
  7303 123403.8              138.823             133.207    -10.985    -9.701061      NaN
  7365 124451.6              140.567             134.935    -11.0978    -9.834838      NaN
  7427 125499.4              142.313             136.671    -11.194    -9.932385      NaN
  7489 126547.2              144.06             138.404    -11.2904   -10.0534      NaN
  7551 127595.0              145.792             140.138    -11.3604   -10.132      NaN
  7613 128642.8              147.551             141.869    -11.4452   -10.2218      NaN
  7675 129690.6              149.291             143.606    -11.5335   -10.3268      NaN
  7737 130738.4              151.037             145.346    -11.5607   -10.3742      NaN
  7799 131786.2              152.779             147.089    -11.4517   -10.2887      NaN
  7861 132834.0              154.532             148.83    -11.0151    -9.859949      NaN
  7923 133881.8              156.283             150.571     -9.950495    -8.837118      NaN
  7985 134929.6              158.026             152.316     -7.834277    -6.717146      NaN
  8047 135977.4              159.774             154.067     -5.413876    -4.315888      NaN
  8109 137025.2              161.521             155.818     -4.566216    -3.507326      NaN
  8171 138073.0              163.264             157.565     -7.971480    -6.919915      NaN
  8233 139120.8              165.009             159.313    -11.3601   -10.343      NaN
  8295 140168.6              166.766             161.063    -11.9779   -10.9951      NaN
  8357 141216.4              168.497             162.812    -12.017   -11.1006      NaN
  8419 142264.2              170.246             164.562    -12.1204   -11.1967      NaN
  8481 143312.0              171.998             166.312    -12.2416   -11.3747      NaN
  8543 144359.8              173.741             168.064    -12.3352   -11.5282      NaN
  8605 145407.6              175.489             169.815    -12.7843   -12.0044      NaN
  8667 146455.4              177.24             171.563    -26.1479   -25.4743      NaN
  8729 147503.2              178.988             173.318     -7.396741    -6.758514      NaN
  8791 148551.0              180.733             175.07    -12.742   -12.1447      NaN
  8853 149598.8              182.472             176.824    -32.9881   -32.3293 0.950910
  8915 150646.6              184.221             178.576    -15.6708   -15.1038 0.950439
  8977 151694.4              185.969             180.332    -13.5755   -13.0793 0.949956
  9039 152742.2              187.709             182.088    -13.4615   -13.0327 0.949464
  9101 153790.0              189.465             183.843    -13.6903   -13.2702 0.948960
  9163 154837.8              191.214             185.599    -13.7688   -13.4303 0.948445
  9225 155885.6              192.957             187.354    -13.9318   -13.4991 0.947916
  9287 156933.4              194.695             189.112    -13.9954   -13.6692 0.947373
  9349 157981.2              196.445             190.866    -13.9608   -13.6609 0.946816
  9411 159029.0              198.191             192.621    -14.1589   -14.1349 0.946242
  9473 160076.8              199.938             194.376    -14.1232   -13.9948 0.945650
  9535 161124.6              201.68             196.133    -14.3244   -14.2605 0.945039
  9597 162172.4              203.428             197.888    -14.3575   -14.1928 0.944408
  9659 163220.2              205.176             199.643    -14.4829   -14.3778 0.943755
  9721 164268.0              206.919             201.399    -14.5751   -14.6366 0.943077
  9783 165315.8              208.671             203.154    -14.8515   -14.8539 0.942374
  9845 166363.6              210.417             204.903    -14.9618   -15.0322 0.941645
  9907 167411.4              212.168             206.655    -14.9493   -14.995 0.940885
  9969 168459.2              213.903             208.41    -14.9932   -15.156 0.940090
 10031 169507.0              215.655             210.165    -15.1313   -15.2532 0.939259
 10093 170554.8              217.406             211.92    -15.5714   -15.7359 0.938388
 10155 171602.6              219.151             213.679    -15.582   -15.861 0.937472
 10217 172650.4              220.899             215.44    -15.8053   -15.8619 0.936507
 10279 173698.2              222.642             217.204    -15.8724   -16.144 0.935487
 10341 174746.0              224.392             218.967    -16.1543   -16.4655 0.934410
 10403 175793.8              226.137             220.728    -16.1269   -16.5391 0.933268
 10465 176841.6              227.88             222.488    -16.3002   -16.7568 0.932056
 10527 177889.4              229.626             224.25    -16.6922   -17.0607 0.930762
 10589 178937.2              231.382             226.011    -16.9071   -17.3821 0.929378
 10651 179985.0              233.118             227.773    -16.9829   -17.2618 0.927893
 10713 181032.8              234.868             229.531    -17.4522   -17.8391 0.926295
 10775 182080.6              236.612             231.29    -17.7451   -18.1789 0.924566
 10837 183128.4              238.36             233.046    -18.0101   -18.4342 0.922693
 10899 184176.2              240.107             234.805    -18.3291   -18.7969 0.920646
 10961 185224.0              241.85             236.564    -18.5614   -18.8625 0.918401
 11023 186271.8              243.598             238.322    -19.192   -20.0186 0.915927
 11085 187319.6              245.343             240.079    -19.6004   -19.9747 0.913189
 11147 188367.4              247.091             241.836    -20.0436   -20.4799 0.910137
 11209 189415.2              248.838             243.591    -20.9236   -21.2946 0.906714
 11271 190463.0              250.583             245.348    -21.7081   -22.0295 0.902846
 11333 191510.8              252.331             247.105    -22.6488   -23.1526 0.898442
 11395 192558.6              254.078             248.861    -23.6007   -24.0058 0.893395
 11457 193606.4              255.82             250.618    -24.9698   -25.4868 0.887560
 11519 194654.2              257.567             252.371    -26.3928   -26.6712 0.880762
 11581 195702.0              259.315             254.126    -28.3081   -28.6497 0.872751
 11643 196749.8              261.062             255.881    -30.8492   -31.4008 0.863206
 11705 197797.6              262.806             257.635    -34.0925   -34.5166 0.851690
 11767 198845.4              264.555             259.391    -38.5133   -38.9545 0.837533
 11829 199893.2              266.3             261.147    -44.4108   -44.9358 0.819777
 11891 200941.0              268.046             262.9    -53.0714   -53.4889 0.796904
 11953 201988.8              269.792             264.65    -65.8838   -66.3722 0.766205
 12015 203036.6              271.54             266.399    -85.6116   -86.1615 0.722368
 12077 204084.4              273.286             268.146   -116.571  -116.976 0.653490
 12139 205132.2              275.033             269.889   -166.177  -166.664 0.524528
 12201 206180.0              276.775             271.624   -245.917  -246.436 0.156426
 12263 207227.8              278.525             273.348   -342.216  -342.724      NaN
 12325 208275.6              280.267             275.072   -371.784  -372.316      NaN
 12387 209323.4              282.019             276.83    -70.4888   -70.9513      NaN
 12449 210371.2              283.77             278.611    -36.643   -37.105      NaN
 12511 211419.0              285.506             280.385    -35.1729   -35.6498      NaN
 12573 212466.8              287.258             282.149    -34.892   -35.3828      NaN
 12635 213514.6              289.004             283.911    -34.785   -35.2831      NaN
 12697 214562.4              290.752             285.67    -34.7313   -35.2755      NaN
 12759 215610.2              292.495             287.427    -34.6049   -35.1805      NaN
 12821 216658.0              294.239             289.181    -34.5597   -35.151      NaN
 12883 217705.8              295.986             290.933    -34.4366   -35.0907      NaN
 12900 217993.1              296.462             291.413    -34.3536   -35.0312      NaN

File: 26.96wt%_climb_proc.txt
 Index  Time(s)  Furnace Temperature(K)  Sample Temperature(K)  HeatFlow(mW)  Q_Corrected       Fc
  6001 101400.0              104.366             104.126     -1.186987    -0.702998      NaN
  6063 102447.8              104.496             104.254     -1.217315    -0.715201      NaN
  6125 103495.6              105.287             104.403     -1.438269    -0.952997      NaN
  6187 104543.4              107.366             104.992     -3.988725    -3.487772      NaN
  6249 105591.2              109.115             105.917     -5.537769    -5.034434      NaN
  6311 106639.0              110.864             107.069     -6.715806    -6.059931      NaN
  6373 107686.8              112.612             108.384     -7.607694    -6.699941      NaN
  6435 108734.6              114.362             109.816     -8.320730    -7.262716      NaN
  6497 109782.4              116.109             111.329     -8.923292    -7.763896      NaN
  6559 110830.2              117.858             112.903     -9.475878    -8.246402      NaN
  6621 111878.0              119.604             114.519    -10.0537    -8.772675      NaN
  6683 112925.8              121.348             116.162    -10.7462    -9.427341      NaN
  6745 113973.6              123.097             117.832    -11.9586   -10.6173      NaN
  6807 115021.4              124.847             119.514    -14.1252   -12.7729      NaN
  6869 116069.2              126.592             121.211    -17.1611   -15.8103      NaN
  6931 117117.0              128.335             122.914    -16.4772   -15.131      NaN
  6993 118164.8              130.077             124.628    -15.4267   -14.0867      NaN
  7055 119212.6              131.832             126.343    -15.3959   -14.058      NaN
  7117 120260.4              133.577             128.057    -15.3874   -14.0677      NaN
  7179 121308.2              135.306             129.781    -15.5112   -14.1998      NaN
  7241 122356.0              137.076             131.496    -15.5173   -14.2151      NaN
  7303 123403.8              138.812             133.221    -15.6249   -14.341      NaN
  7365 124451.6              140.552             134.947    -15.7077   -14.4447      NaN
  7427 125499.4              142.316             136.672    -15.7504   -14.4887      NaN
  7489 126547.2              144.041             138.405    -15.8017   -14.5647      NaN
  7551 127595.0              145.803             140.134    -15.4731   -14.2447      NaN
  7613 128642.8              147.551             141.869    -12.6933   -11.4699      NaN
  7675 129690.6              149.307             143.609      9.895843    11.1025      NaN
  7737 130738.4              151.029             145.371    150.519   151.705      NaN
  7799 131786.2              152.792             147.137     79.4855    80.6486      NaN
  7861 132834.0              154.531             148.878      2.783183     3.938347      NaN
  7923 133881.8              156.274             150.608     -8.232172    -7.118795      NaN
  7985 134929.6              158.032             152.341     -9.904835    -8.787704      NaN
  8047 135977.4              159.781             154.082    -10.4122    -9.314208      NaN
  8109 137025.2              161.524             155.828    -10.822    -9.763159      NaN
  8171 138073.0              163.269             157.576    -11.0425    -9.990920      NaN
  8233 139120.8              165.012             159.324    -11.2376   -10.2205      NaN
  8295 140168.6              166.76             161.073    -11.4763   -10.4936      NaN
  8357 141216.4              168.499             162.82    -11.9025   -10.9861      NaN
  8419 142264.2              170.25             164.568    -11.2864   -10.3627      NaN
  8481 143312.0              172.001             166.315    -11.6136   -10.7467      NaN
  8543 144359.8              173.749             168.064    -11.8701   -11.0631      NaN
  8605 145407.6              175.493             169.814    -12.1066   -11.3267      NaN
  8667 146455.4              177.237             171.566    -12.5133   -11.8396      NaN
  8729 147503.2              178.979             173.318    -12.6999   -12.0617      NaN
  8791 148551.0              180.736             175.069    -14.9376   -14.3403      NaN
  8853 149598.8              182.478             176.818   -109.718  -109.059 0.172866
  8915 150646.6              184.223             178.543   -225.449  -224.882 0.165039
  8977 151694.4              185.963             180.272   -170.96  -170.463 0.157045
  9039 152742.2              187.713             182.035    -26.1267   -25.6978 0.148718
  9101 153790.0              189.459             183.804    -22.255   -21.835 0.140175
  9163 154837.8              191.209             185.571    -22.4306   -22.0921 0.131436
  9225 155885.6              192.95             187.334    -22.6603   -22.2276 0.122494
  9287 156933.4              194.698             189.094    -23.1554   -22.8291 0.113331
  9349 157981.2              196.446             190.854    -23.4766   -23.1767 0.103911
  9411 159029.0              198.188             192.613    -23.7842   -23.7601 0.094222
  9473 160076.8              199.945             194.369    -24.3754   -24.247 0.084248
  9535 161124.6              201.683             196.129    -24.9073   -24.8433 0.073933
  9597 162172.4              203.43             197.882    -25.3149   -25.1502 0.063308
  9659 163220.2              205.178             199.639    -25.7614   -25.6563 0.052292
  9721 164268.0              206.922             201.399    -26.4264   -26.4879 0.040851
  9783 165315.8              208.67             203.157    -27.0174   -27.0198 0.028983
  9845 166363.6              210.415             204.912    -27.5743   -27.6448 0.016654
  9907 167411.4              212.165             206.669    -28.2608   -28.3064 0.003803
  9969 168459.2              213.916             208.425    -28.0219   -28.1847      NaN
 10031 169507.0              215.658             210.182    -22.5786   -22.7005      NaN
 10093 170554.8              217.401             211.94    -21.907   -22.0715      NaN
 10155 171602.6              219.145             213.699    -21.8927   -22.1717      NaN
 10217 172650.4              220.901             215.456    -21.9965   -22.0531      NaN
 10279 173698.2              222.639             217.214    -22.231   -22.5026      NaN
 10341 174746.0              224.389             218.97    -22.4102   -22.7214      NaN
 10403 175793.8              226.142             220.73    -22.5317   -22.9439      NaN
 10465 176841.6              227.879             222.492    -22.5624   -23.0189      NaN
 10527 177889.4              229.624             224.251    -22.7361   -23.1046      NaN
 10589 178937.2              231.377             226.01    -23.0333   -23.5083      NaN
 10651 179985.0              233.115             227.77    -23.3321   -23.611      NaN
 10713 181032.8              234.868             229.528    -23.2533   -23.6402      NaN
 10775 182080.6              236.615             231.286    -23.3185   -23.7523      NaN
 10837 183128.4              238.361             233.044    -23.3693   -23.7934      NaN
 10899 184176.2              240.107             234.805    -23.5336   -24.0014      NaN
 10961 185224.0              241.852             236.562    -23.6892   -23.9903      NaN
 11023 186271.8              243.599             238.322    -24.0715   -24.8981      NaN
 11085 187319.6              245.343             240.08    -24.0855   -24.4598      NaN
 11147 188367.4              247.09             241.837    -24.1548   -24.591      NaN
 11209 189415.2              248.837             243.593    -24.194   -24.5649      NaN
 11271 190463.0              250.583             245.351    -24.3332   -24.6546      NaN
 11333 191510.8              252.33             247.107    -24.5955   -25.0992      NaN
 11395 192558.6              254.075             248.863    -24.7824   -25.1875      NaN
 11457 193606.4              255.822             250.618    -24.934   -25.451      NaN
 11519 194654.2              257.57             252.374    -24.9219   -25.2002      NaN
 11581 195702.0              259.314             254.129    -25.1598   -25.5015      NaN
 11643 196749.8              261.061             255.884    -25.3785   -25.9301      NaN
 11705 197797.6              262.807             257.639    -25.4484   -25.8725      NaN
 11767 198845.4              264.553             259.393    -25.6765   -26.1177      NaN
 11829 199893.2              266.299             261.147    -25.8408   -26.3657      NaN
 11891 200941.0              268.046             262.9    -25.92   -26.3375      NaN
 11953 201988.8              269.792             264.653    -26.1759   -26.6643      NaN
 12015 203036.6              271.533             266.406    -26.3802   -26.9301      NaN
 12077 204084.4              273.286             268.155    -26.5586   -26.9642      NaN
 12139 205132.2              275.032             269.904    -26.7415   -27.2286      NaN
 12201 206180.0              276.782             271.658    -26.9313   -27.4506      NaN
 12263 207227.8              278.526             273.414    -27.1762   -27.6839      NaN
 12325 208275.6              280.27             275.171    -27.3165   -27.8486      NaN
 12387 209323.4              282.018             276.926    -27.3693   -27.8318      NaN
 12449 210371.2              283.761             278.683    -27.552   -28.014      NaN
 12511 211419.0              285.508             280.435    -27.623   -28.0999      NaN
 12573 212466.8              287.252             282.186    -27.6463   -28.1372      NaN
 12635 213514.6              289.005             283.933    -27.7369   -28.2349      NaN
 12697 214562.4              290.751             285.687    -27.9548   -28.499      NaN
 12759 215610.2              292.492             287.438    -28.0348   -28.6103      NaN
 12821 216658.0              294.239             289.186    -28.1405   -28.7319      NaN
 12883 217705.8              295.988             290.933    -28.1913   -28.8454      NaN
 12900 217993.1              296.468             291.412    -28.1946   -28.8722      NaN