Folder: NH3_Calorimetry/archive_jack/Data

Note: README.md
# <u>Calorimetry Analysis</u>
*Repository for analysis specific heat capacity analysis of the calorimetry data of H2O-NH3 systems*

Folder Structure:
- **i_data**: all experimental data
  - **26C**: data with T range up to 26 C (299.15 K)
  - **46C**: data with T range up to 26 C (299.15 K)
  - **calibration_ice**: data for calibration of calorimeter
- **i_data_literature**: all literature data
  - **lit_cp**: past NH3-H2O specific heat measurements
- **i_data_processed**: processed experimental data
  - **not_smoothed**: data that has not undergone average smoothing (used for plotting)
- **o_finalPlots**: plots used in the manuscript
- **o_supplementaryPlots**: plots used in the supplementary information
- **z_scripts**: all scripts used in analysis
- **z_unorganized_archive**: folders pre-organization.

File: 6wt%_NH4-H2O.csv
NH3-H2O 6wt%  Specific Heat - Large HF,,,,
Creation Date : 7/12/2022 10:24:27 AM,,,,
User : admin,,,,
,,,,
HeatFlow :,,,,
 Initial Mass : 4598.3 mg,,,,
 Molar Mass : 17 g/mol,,,,
,,,,
Index,Time(s),Furnace Temperature(K),Sample Temperature(K),HeatFlow(mW)
1,0,299.005,298.956,329.51
58,661.2,298.889,298.974,37.9095
115,1322.4,298.38,298.911,4.770997
172,1983.6,296.981,298.635,5.373852
229,2644.8,294.192,297.926,15.2477
286,3306,289.971,296.515,33.3279
343,3967.2,285.14,294.33,55.92591
400,4628.4,280.256,291.524,76.3933
457,5289.6,275.5053,288.232,92.8821
514,5950.8,271.002,284.628,104.511
571,6612,266.739,280.86,111.321
628,7273.2,262.659,277.021,114.828
685,7934.4,258.713,273.167,116.156
742,8595.6,254.914,269.335,116.292
799,9256.8,251.252,265.554,115.368
856,9918,247.703,261.839,113.827
913,10579.2,244.251,258.198,111.592
970,11240.4,240.911,254.637,526.498
1027,11901.6,237.662,251.243,656.778
1084,12562.8,234.52,247.864,271.937
1141,13224,231.479,244.549,152.33
1198,13885.2,228.51,241.319,115.003
1255,14546.4,225.598,238.171,96.9998
1312,15207.6,222.746,235.099,85.2914
1369,15868.8,219.966,232.099,76.5655
1426,16530,217.275,229.175,69.7255
1483,17191.2,214.641,226.323,64.163
1540,17852.4,212.081,223.542,59.2158
1597,18513.6,209.58,220.829,55.4934
1654,19174.8,207.145,218.182,52.3193
1711,19836,204.76,215.602,49.2392
1768,20497.2,202.432,213.08,46.55443
1825,21158.4,200.142,210.615,44.26304
1882,21819.6,197.883,208.202,42.0775
1939,22480.8,195.67,205.837,39.6057
1996,23142,193.547,203.522,38.544
2053,23803.2,191.506,201.267,36.7612
2110,24464.4,189.509,199.071,34.8475
2167,25125.6,187.546,196.927,33.1633
2224,25786.8,185.61,194.833,32.1967
2281,26448,183.733,192.786,30.8816
2338,27109.2,181.9,190.784,29.3043
2395,27770.4,180.104,188.829,28.6659
2452,28431.6,178.362,186.918,27.6655
2509,29092.8,176.662,185.052,26.5769
2566,29754,174.999,183.229,25.7053
2623,30415.2,173.338,181.445,24.2176
2680,31076.4,171.691,179.693,24.1356
2737,31737.6,169.937,177.957,23.17269
2794,32398.8,168.21,176.222,22.8034
2851,33060,166.494,174.497,23.31614
2908,33721.2,164.802,172.781,22.3375
2965,34382.4,163.19,171.082,22.1241
3022,35043.6,161.691,169.419,21.70257
3079,35704.8,160.152,167.787,20.6111
3136,36366,158.736,166.19,20.2825
3193,37027.2,157.285,164.632,19.1653
3250,37688.4,155.87,163.096,19.10688
3307,38349.6,154.528,161.598,18.2117
3364,39010.8,153.179,160.133,17.73952
3421,39672,151.843,158.695,17.00216
3478,40333.2,150.539,157.281,16.6666
3535,40994.4,149.339,155.904,16.06945
3592,41655.6,148.13,154.562,15.6746
3649,42316.8,146.917,153.247,15.12614
3706,42978,145.739,151.957,14.61912
3763,43639.2,144.574,150.693,14.0999
3820,44300.4,143.405,149.449,13.6681
3877,44961.6,142.264,148.222,13.28865
3934,45622.8,141.17,147.019,12.9161
3991,46284,140.038,145.836,12.7434
4048,46945.2,138.923,144.664,12.3669
4105,47606.4,137.832,143.505,12.1513
4162,48267.6,136.727,142.36,11.9148
4219,48928.8,135.703,141.229,11.8392
4276,49590,134.651,140.121,11.3361
4333,50251.2,133.606,139.022,11.1825
4390,50912.4,132.526,137.93,11.04543
4447,51573.6,131.572,136.853,10.7429
4504,52234.8,130.616,135.804,10.6377
4561,52896,129.67,134.769,10.1799
4618,53557.2,128.648,133.747,9.878722
4675,54218.4,127.741,132.733,9.823989
4732,54879.6,126.814,131.744,9.294905
4789,55540.8,125.8,130.752,9.495383
4846,56202,124.993,129.777,9.183279
4903,56863.2,124.143,128.832,8.781212
4960,57524.4,123.134,127.891,8.539629
5017,58185.6,122.25,126.945,8.592808
5074,58846.8,121.414,126.016,8.323583
5131,59508,120.689,125.117,8.116864
5188,60169.2,119.95,124.254,7.622481
5245,60830.4,119.177,123.403,7.489549
5302,61491.6,118.39,122.572,7.373905
5359,62152.8,117.696,121.751,7.118102
5416,62814,117.171,120.976,7.188242
5473,63475.2,116.622,120.245,6.316947
5530,64136.4,116.073,119.547,5.896157
5587,64797.6,115.6,118.883,5.539336
5644,65458.8,115.207,118.265,5.048457
5701,66120,114.765,117.684,4.710939
5758,66781.2,114.379,117.133,4.362886
5815,67442.4,114.084,116.623,4.055378
5872,68103.6,113.774,116.153,3.659291
5929,68764.8,113.494,115.715,3.348658
5986,69426,113.216,115.308,3.062485
6043,70087.2,112.968,114.925,2.830394
6100,70748.4,112.671,114.566,2.643606
6157,71409.6,112.374,114.215,2.533627
6214,72070.8,112.265,113.892,2.30376
6271,72732,112.072,113.606,2.029597
6328,73393.2,111.835,113.328,1.91061
6385,74054.4,111.716,113.069,1.746489
6442,74715.6,111.513,112.833,1.533992
6499,75376.8,111.336,112.599,1.46116
6556,76038,111.177,112.382,1.322188
6613,76699.2,110.992,112.169,1.281039
6670,77360.4,110.9,111.972,1.147945
6727,78021.6,110.842,111.799,0.956285
6784,78682.8,110.772,111.645,0.779706
6841,79344,110.724,111.509,0.634658
6898,80005.2,110.678,111.389,0.486491
6955,80666.4,110.633,111.282,0.374086
7012,81327.6,110.596,111.188,0.283378
7069,81988.8,110.543,111.103,0.201481
7126,82650,110.506,111.024,0.129046
7183,83311.2,110.464,110.952,0.080928
7240,83972.4,110.428,110.888,0.024104
7297,84633.6,110.39,110.828,-0.010512
7354,85294.8,110.361,110.773,-0.061858
7411,85956,110.315,110.721,-0.080755
7468,86617.2,110.259,110.67,-0.081405
7525,87278.4,110.203,110.617,-0.085152
7582,87939.6,110.145,110.564,-0.083636
7639,88600.8,110.083,110.509,-0.073133
7696,89262,110.042,110.454,-0.075023
7753,89923.2,110.012,110.404,-0.106683
7810,90584.4,109.966,110.356,-0.129679
7867,91245.6,109.9345,110.309,-0.141827
7924,91906.8,109.893,110.265,-0.164225
7981,92568,109.845,110.22,-0.157447
8038,93229.2,109.802,110.175,-0.163712
8095,93890.4,109.755,110.13,-0.175264
8152,94551.6,110.217,110.092,-0.248983
8209,95212.8,113.806,110.45,-3.524326
8266,95874,116.564,111.309,-7.445136
8323,96535.2,119.316,112.517,-10.4293
8380,97196.4,122.097,114.013,-12.9623
8437,97857.6,124.862,115.749,-15.2344
8494,98518.8,127.617,117.676,-17.3531
8551,99180,130.373,119.758,-19.7219
8608,99841.2,133.133,121.964,-23.1371
8665,100502.4,135.884,124.269,-24.6635
8722,101163.6,138.645,126.655,-24.5922
8779,101824.8,141.398,129.11,-25.4581
8836,102486,144.157,131.619,-26.2823
8893,103147.2,146.905,134.173,-27.0114
8950,103808.4,149.669,136.76,-27.6297
9007,104469.6,152.421,139.38,-28.2375
9064,105130.8,155.168,142.021,-28.7477
9121,105792,157.938,144.683,-29.2783
9178,106453.2,160.683,147.365,-29.6709
9235,107114.4,163.448,150.06,-29.1053
9292,107775.6,166.201,152.772,-24.0666
9349,108436.8,168.951,155.492,-1.682444
9406,109098,171.704,158.225,39.7655
9463,109759.2,174.464,160.961,1.620494
9520,110420.4,177.222,163.698,-22.9538
9577,111081.6,179.977,166.441,-27.9398
9634,111742.8,182.731,169.192,-29.7587
9691,112404,185.488,171.948,-74.6257
9748,113065.2,188.238,174.716,-1.340407
9805,113726.4,190.999,177.488,-116.43
9862,114387.6,193.748,180.251,-105.302
9919,115048.8,196.508,183.036,-42.6085
9976,115710,199.261,185.829,-38.7307
10033,116371.2,202.019,188.624,-39.0747
10090,117032.4,204.771,191.422,-39.7658
10147,117693.6,207.524,194.222,-40.5061
10204,118354.8,210.284,197.022,-41.2824
10261,119016,213.042,199.827,-42.1218
10318,119677.2,215.79,202.634,-43.0442
10375,120338.4,218.549,205.441,-43.983
10432,120999.6,221.301,208.249,-45.0383
10489,121660.8,224.059,211.057,-46.2011
10546,122322,226.812,213.864,-47.50082
10603,122983.2,229.564,216.672,-48.91974
10660,123644.4,232.323,219.477,-50.3631
10717,124305.6,235.08,222.285,-52.1099
10774,124966.8,237.834,225.095,-54.1737
10831,125628,240.584,227.904,-56.3948
10888,126289.2,243.341,230.71,-58.9997
10945,126950.4,246.095,233.513,-62.1148
11002,127611.6,248.843,236.316,-65.8348
11059,128272.8,251.598,239.115,-70.2675
11116,128934,254.359,241.907,-75.5477
11173,129595.2,257.11,244.697,-82.2971
11230,130256.4,259.86,247.487,-90.9649
11287,130917.6,262.631,250.275,-102.172
11344,131578.8,265.379,253.068,-117.142
11401,132240,268.121,255.858,-136.974
11458,132901.2,270.88,258.639,-164.101
11515,133562.4,273.639,261.41,-202.188
11572,134223.6,276.379,264.177,-254.396
11629,134884.8,279.145,266.936,-313.351
11686,135546,281.921,269.698,-346.277
11743,136207.2,284.645,272.476,-290.455
11800,136868.4,287.416,275.259,-123.28
11857,137529.6,290.18,278.05,-88.5787
11914,138190.8,292.943,280.851,-84.4712
11971,138852,295.684,283.658,-84.1491
12028,139513.2,298.417,286.454,-83.9642
12085,140174.4,299.227,289.084,-81.5904
12142,140835.6,299.181,291.141,-68.6745
12199,141496.8,299.164,292.71,-53.70822
12256,142158,299.176,293.903,-41.1867
12313,142819.2,299.147,294.82,-31.7093
12370,143480.4,299.157,295.509,-24.0697
12427,144141.6,299.147,296.041,-18.4539
12484,144802.8,299.141,296.447,-14.1284
12541,145464,299.16,296.751,-10.6542
12598,146125.2,299.168,296.989,-8.225891
12655,146786.4,299.164,297.18,-6.468221
12712,147447.6,299.134,297.312,-4.761647
12769,148108.8,299.161,297.415,-3.398401
12826,148770,299.159,297.494,-2.523873
12883,149431.2,299.142,297.56,-2.001519
12940,150092.4,299.168,297.609,-1.350823
12997,150753.6,299.167,297.658,-1.178543
13054,151414.8,299.155,297.698,-0.952722
13111,152076,299.143,297.722,-0.548029
13168,152737.2,299.166,297.745,-0.287056
13225,153398.4,299.169,297.771,-0.311084
13282,154059.6,299.185,297.809,-0.49339
13339,154720.8,299.181,297.857,-0.804082
13396,155382,299.162,297.905,-0.895023
13453,156043.2,299.164,297.941,-0.657597
13510,156704.4,299.162,297.975,-0.489533
13567,157365.6,299.165,298.0087,-0.416399
13624,158026.8,299.165,298.041,-0.37279
13681,158688,299.162,298.071,-0.30653
13738,159349.2,299.161,298.1,-0.25881
13795,160010.4,299.158,298.127,-0.184835
13852,160671.6,299.16,298.151,-0.098508
13909,161332.8,299.161,298.175,-0.062124
13966,161994,299.158,298.198,-0.071561
14023,162655.2,299.151,298.215,0.017847
14080,163316.4,299.152,298.229,0.162165
14137,163977.6,299.158,298.242,0.247963
14194,164638.8,299.155,298.255,0.247617
14251,165300,299.153,298.266,0.318827
14308,165961.2,299.1525,298.275,0.370474
14365,166622.4,299.154,298.284,0.412683
14422,167283.6,299.151,298.29,0.485093
14479,167944.8,299.152,298.295,0.493842
14536,168606,299.151,298.299,0.52404
14593,169267.2,299.1465,298.303,0.577231
14650,169928.4,299.151,298.304,0.638831
14707,170589.6,299.148,298.305,0.644493
14764,171250.8,299.149,298.305,0.695798
14821,171912,299.149,298.305,0.697
14878,172573.2,299.15,298.305,0.74659
14897,172793.6,299.151,298.305,0.75311